subjectID,Gender,Age,xPair,colorPair,trial_index,rt,whichSideDark,selectedDarkSide,response,newresponse,unsignedResponse,darkResponse
55555,male,33,43,0,130,2381.4,1,1,-4,-0.02,0.02,0.02
22222,Male,25,43,0,38,24264.2,0,1,10,0.05,0.05,0.05
33333,fema,23,43,0,20,5604,0,1,143,0.715,0.715,0.715
66666,Male,28,43,0,76,3014.1,1,1,-48,-0.24,0.24,0.24
22222,Male,25,43,0,113,6719.2,1,1,-48,-0.24,0.24,0.24
66666,Male,28,43,0,68,5815.3,0,-1,-23,-0.115,0.115,-0.115
33333,fema,23,43,0,121,6778,1,1,-19,-0.095,0.095,0.095
55555,male,33,43,0,21,7225.6,0,-1,-32,-0.16,0.16,-0.16
66666,Male,28,55,1,39,4305.4,1,1,-19,-0.095,0.095,0.095
55555,male,33,55,1,83,3541.6,1,1,-59,-0.295,0.295,0.295
33333,fema,23,55,1,32,3474,0,1,200,1,1,1
55555,male,33,55,1,59,17638.8,0,1,12,0.06,0.06,0.06
33333,fema,23,55,1,102,3984,1,1,-200,-1,1,1
22222,Male,25,55,1,102,2486.1,1,1,-35,-0.175,0.175,0.175
66666,Male,28,55,1,114,6085.7,0,1,19,0.095,0.095,0.095
22222,Male,25,55,1,44,5278.2,0,1,17,0.085,0.085,0.085
22222,Male,25,68,2,17,4036,0,1,114,0.57,0.57,0.57
33333,fema,23,68,2,93,4072,1,1,-200,-1,1,1
33333,fema,23,68,2,27,4887,0,1,200,1,1,1
22222,Male,25,68,2,104,4454,1,1,-150,-0.75,0.75,0.75
55555,male,33,68,2,109,4105.3,1,-1,14,0.07,0.07,-0.07
55555,male,33,68,2,49,5586.7,0,1,34,0.17,0.17,0.17
66666,Male,28,68,2,53,4902.9,0,1,73,0.365,0.365,0.365
66666,Male,28,68,2,130,2922,1,1,-31,-0.155,0.155,0.155
33333,fema,23,103,3,64,3433,1,1,-200,-1,1,1
55555,male,33,103,3,88,3024.9,1,1,-7,-0.035,0.035,0.035
66666,Male,28,103,3,101,4015.2,1,1,-43,-0.215,0.215,0.215
22222,Male,25,103,3,67,7400.8,0,1,71,0.355,0.355,0.355
22222,Male,25,103,3,120,2428.7,1,1,-140,-0.7,0.7,0.7
66666,Male,28,103,3,34,9762.6,0,1,27,0.135,0.135,0.135
55555,male,33,103,3,41,3942.6,0,1,59,0.295,0.295,0.295
33333,fema,23,103,3,109,2586,0,1,200,1,1,1
55555,male,33,114,4,23,6243.1,0,1,24,0.12,0.12,0.12
22222,Male,25,114,4,118,3505.8,0,1,46,0.23,0.23,0.23
22222,Male,25,114,4,10,4227,1,-1,50,0.25,0.25,-0.25
55555,male,33,114,4,121,2570.5,1,1,-28,-0.14,0.14,0.14
66666,Male,28,114,4,55,8318.1,0,1,38,0.19,0.19,0.19
33333,fema,23,114,4,110,6229,1,1,-1,-0.005,0.005,0.005
33333,fema,23,114,4,19,5083,0,1,200,1,1,1
66666,Male,28,114,4,71,4205.5,1,1,-45,-0.225,0.225,0.225
66666,Male,28,225,5,9,9209.2,0,1,63,0.315,0.315,0.315
66666,Male,28,225,5,95,8497.7,1,1,-28,-0.14,0.14,0.14
33333,fema,23,225,5,22,14447,1,1,-60,-0.3,0.3,0.3
55555,male,33,225,5,116,3137.7,0,1,41,0.205,0.205,0.205
55555,male,33,225,5,62,3452.7,1,1,-10,-0.05,0.05,0.05
22222,Male,25,225,5,109,2865.7,0,1,64,0.32,0.32,0.32
22222,Male,25,225,5,58,7149.4,1,1,-30,-0.15,0.15,0.15
33333,fema,23,225,5,127,5601,0,1,25,0.125,0.125,0.125
66666,Male,28,262,6,90,4449.7,0,1,50,0.25,0.25,0.25
33333,fema,23,262,6,106,5872,0,1,58,0.29,0.29,0.29
33333,fema,23,262,6,26,4177,1,1,-200,-1,1,1
22222,Male,25,262,6,77,2138.9,1,1,-84,-0.42,0.42,0.42
55555,male,33,262,6,29,3850.2,0,1,158,0.79,0.79,0.79
66666,Male,28,262,6,30,7146.1,1,1,-161,-0.805,0.805,0.805
55555,male,33,262,6,104,4075.8,1,-1,15,0.075,0.075,-0.075
22222,Male,25,262,6,49,4224,0,1,48,0.24,0.24,0.24
22222,Male,25,265,7,105,3481.3,0,1,128,0.64,0.64,0.64
66666,Male,28,265,7,54,2373,1,1,-39,-0.195,0.195,0.195
55555,male,33,265,7,48,3252.8,0,1,97,0.485,0.485,0.485
22222,Male,25,265,7,15,5710.4,1,1,-117,-0.585,0.585,0.585
33333,fema,23,265,7,42,6022,1,1,-200,-1,1,1
66666,Male,28,265,7,104,4130.4,0,1,18,0.09,0.09,0.09
33333,fema,23,265,7,118,4095,0,1,200,1,1,1
55555,male,33,265,7,113,4251.9,1,1,-14,-0.07,0.07,0.07
22222,Male,25,288,8,111,5269.4,1,1,-59,-0.295,0.295,0.295
55555,male,33,288,8,32,5864.4,0,1,53,0.265,0.265,0.265
66666,Male,28,288,8,62,3167.2,1,1,-102,-0.51,0.51,0.51
33333,fema,23,288,8,68,3668,1,1,-200,-1,1,1
66666,Male,28,288,8,123,4454.5,0,1,102,0.51,0.51,0.51
33333,fema,23,288,8,130,5381,0,1,187,0.935,0.935,0.935
22222,Male,25,288,8,34,2398.1,0,1,44,0.22,0.22,0.22
55555,male,33,288,8,82,8371,1,1,-60,-0.3,0.3,0.3
55555,male,33,321,9,126,10959.6,1,1,-5,-0.025,0.025,0.025
33333,fema,23,321,9,92,4425,0,-1,-1,-0.005,0.005,-0.005
22222,Male,25,321,9,91,5133.1,1,1,-56,-0.28,0.28,0.28
33333,fema,23,321,9,9,10090,1,1,-51,-0.255,0.255,0.255
66666,Male,28,321,9,72,4273.5,1,1,-53,-0.265,0.265,0.265
55555,male,33,321,9,9,11146.9,0,-1,-24,-0.12,0.12,-0.12
22222,Male,25,321,9,35,2977.8,0,1,24,0.12,0.12,0.12
66666,Male,28,321,9,20,3771.6,0,1,34,0.17,0.17,0.17
22222,Male,25,329,10,28,7077.5,1,1,-50,-0.25,0.25,0.25
33333,fema,23,329,10,28,32074,0,1,20,0.1,0.1,0.1
55555,male,33,329,10,94,4055.8,1,1,-10,-0.05,0.05,0.05
22222,Male,25,329,10,119,2823.1,0,1,75,0.375,0.375,0.375
33333,fema,23,329,10,86,4121,1,1,-1,-0.005,0.005,0.005
66666,Male,28,329,10,127,2769.1,1,1,-127,-0.635,0.635,0.635
55555,male,33,329,10,22,14949.8,0,-1,-60,-0.3,0.3,-0.3
66666,Male,28,329,10,48,3364.6,0,1,15,0.075,0.075,0.075
33333,fema,23,335,11,24,3394,1,1,-200,-1,1,1
22222,Male,25,335,11,114,2540.1,1,1,-143,-0.715,0.715,0.715
55555,male,33,335,11,65,5949.8,1,1,-71,-0.355,0.355,0.355
33333,fema,23,335,11,80,3554,0,1,200,1,1,1
22222,Male,25,335,11,11,7368.3,0,1,76,0.38,0.38,0.38
66666,Male,28,335,11,66,2636.7,0,1,107,0.535,0.535,0.535
66666,Male,28,335,11,100,3754.6,1,1,-126,-0.63,0.63,0.63
55555,male,33,335,11,98,2947.6,0,1,101,0.505,0.505,0.505
33333,fema,23,350,12,107,2944,0,1,200,1,1,1
55555,male,33,350,12,34,2544.9,1,1,-136,-0.68,0.68,0.68
22222,Male,25,350,12,82,2617.2,0,1,83,0.415,0.415,0.415
66666,Male,28,350,12,46,3274.7,0,1,72,0.36,0.36,0.36
66666,Male,28,350,12,96,4330.5,1,1,-175,-0.875,0.875,0.875
22222,Male,25,350,12,31,3570.5,1,1,-98,-0.49,0.49,0.49
33333,fema,23,350,12,35,3429,1,1,-200,-1,1,1
55555,male,33,350,12,118,2530.6,0,1,89,0.445,0.445,0.445
55555,male,33,435,13,93,3033.7,0,1,15,0.075,0.075,0.075
33333,fema,23,435,13,94,27617,1,1,-58,-0.29,0.29,0.29
22222,Male,25,435,13,41,4438,1,1,-12,-0.06,0.06,0.06
55555,male,33,435,13,54,11053.3,1,1,-8,-0.04,0.04,0.04
22222,Male,25,435,13,71,3867.4,0,-1,-16,-0.08,0.08,-0.08
33333,fema,23,435,13,46,5211,0,1,200,1,1,1
66666,Male,28,435,13,115,4553.8,0,1,18,0.09,0.09,0.09
66666,Male,28,435,13,36,4900,1,1,-15,-0.075,0.075,0.075
22222,Male,25,468,14,125,1919.7,0,1,105,0.525,0.525,0.525
33333,fema,23,468,14,61,8680,1,1,-200,-1,1,1
66666,Male,28,468,14,94,5243.4,1,1,-200,-1,1,1
22222,Male,25,468,14,19,3036.8,1,1,-106,-0.53,0.53,0.53
66666,Male,28,468,14,38,3604.7,0,1,50,0.25,0.25,0.25
33333,fema,23,468,14,105,3760,0,1,200,1,1,1
55555,male,33,468,14,50,1906.6,0,1,200,1,1,1
55555,male,33,468,14,70,7431.2,1,1,-161,-0.805,0.805,0.805
22222,Male,25,472,15,124,3931.9,1,1,-97,-0.485,0.485,0.485
22222,Male,25,472,15,27,3147.5,0,1,78,0.39,0.39,0.39
33333,fema,23,472,15,77,6644,1,1,-169,-0.845,0.845,0.845
33333,fema,23,472,15,53,5604,0,1,200,1,1,1
55555,male,33,472,15,31,9123.1,1,1,-200,-1,1,1
66666,Male,28,472,15,49,3171.6,0,1,120,0.6,0.6,0.6
66666,Male,28,472,15,110,2219,1,1,-126,-0.63,0.63,0.63
55555,male,33,472,15,103,3460.8,0,1,117,0.585,0.585,0.585
33333,fema,23,543,16,65,3965,0,1,146,0.73,0.73,0.73
55555,male,33,543,16,115,4151,1,1,-93,-0.465,0.465,0.465
66666,Male,28,543,16,82,2738.4,1,1,-42,-0.21,0.21,0.21
22222,Male,25,543,16,63,2962.4,1,1,-100,-0.5,0.5,0.5
66666,Male,28,543,16,45,3272.2,0,1,180,0.9,0.9,0.9
55555,male,33,543,16,8,24620,0,1,98,0.49,0.49,0.49
22222,Male,25,543,16,94,2890.6,0,1,84,0.42,0.42,0.42
33333,fema,23,543,16,113,2667,1,1,-200,-1,1,1
33333,fema,23,594,17,70,10975,0,1,60,0.3,0.3,0.3
55555,male,33,594,17,86,6141,0,1,65,0.325,0.325,0.325
66666,Male,28,594,17,41,4068.9,0,1,106,0.53,0.53,0.53
66666,Male,28,594,17,74,2223.8,1,1,-144,-0.72,0.72,0.72
33333,fema,23,594,17,17,9642,1,1,-51,-0.255,0.255,0.255
22222,Male,25,594,17,43,2514.7,1,1,-32,-0.16,0.16,0.16
22222,Male,25,594,17,97,5260.9,0,1,81,0.405,0.405,0.405
55555,male,33,594,17,35,11881.2,1,1,-26,-0.13,0.13,0.13
66666,Male,28,728,18,13,7178.6,0,1,82,0.41,0.41,0.41
22222,Male,25,728,18,29,4053.8,0,1,62,0.31,0.31,0.31
33333,fema,23,728,18,119,5204,1,1,-2,-0.01,0.01,0.01
33333,fema,23,728,18,48,22442,0,1,26,0.13,0.13,0.13
55555,male,33,728,18,128,4077.9,1,-1,12,0.06,0.06,-0.06
55555,male,33,728,18,12,26352.9,0,-1,-38,-0.19,0.19,-0.19
66666,Male,28,728,18,128,1723.1,1,1,-150,-0.75,0.75,0.75
22222,Male,25,728,18,93,3795.6,1,1,-20,-0.1,0.1,0.1
55555,male,33,752,19,60,4346.2,1,1,-200,-1,1,1
33333,fema,23,752,19,12,2942,1,1,-200,-1,1,1
66666,Male,28,752,19,25,4398.4,0,1,131,0.655,0.655,0.655
22222,Male,25,752,19,95,3448.1,1,1,-99,-0.495,0.495,0.495
66666,Male,28,752,19,77,2279.8,1,1,-86,-0.43,0.43,0.43
22222,Male,25,752,19,32,2922.5,0,1,143,0.715,0.715,0.715
55555,male,33,752,19,72,8268.2,0,1,200,1,1,1
33333,fema,23,752,19,90,2386,0,1,170,0.85,0.85,0.85
55555,male,33,806,20,106,3674.2,0,1,104,0.52,0.52,0.52
33333,fema,23,806,20,101,3336,1,1,-200,-1,1,1
66666,Male,28,806,20,43,3502.4,0,1,151,0.755,0.755,0.755
55555,male,33,806,20,43,9081.1,1,1,-119,-0.595,0.595,0.595
66666,Male,28,806,20,92,2054.1,1,1,-71,-0.355,0.355,0.355
33333,fema,23,806,20,44,5095,0,1,200,1,1,1
22222,Male,25,806,20,90,4680.8,1,1,-104,-0.52,0.52,0.52
22222,Male,25,806,20,37,8088.1,0,1,112,0.56,0.56,0.56
55555,male,33,887,21,11,30537.4,1,1,-200,-1,1,1
33333,fema,23,887,21,83,5879,1,1,-24,-0.12,0.12,0.12
55555,male,33,887,21,85,5599.7,0,1,100,0.5,0.5,0.5
66666,Male,28,887,21,118,2517.1,0,1,174,0.87,0.87,0.87
22222,Male,25,887,21,50,50019.8,0,1,70,0.35,0.35,0.35
22222,Male,25,887,21,81,2532.9,1,1,-110,-0.55,0.55,0.55
66666,Male,28,887,21,15,2478.6,1,1,-200,-1,1,1
33333,fema,23,887,21,23,7721,0,1,200,1,1,1
33333,fema,23,900,22,81,4865,1,1,-200,-1,1,1
22222,Male,25,900,22,75,2839.8,1,1,-191,-0.955,0.955,0.955
66666,Male,28,900,22,26,2723.2,1,1,-200,-1,1,1
55555,male,33,900,22,26,4279.6,1,1,-200,-1,1,1
55555,male,33,900,22,111,2823.3,0,1,200,1,1,1
33333,fema,23,900,22,38,3054,0,1,200,1,1,1
22222,Male,25,900,22,57,6527.9,0,1,125,0.625,0.625,0.625
66666,Male,28,900,22,119,1764.4,0,1,135,0.675,0.675,0.675
22222,Male,25,904,23,83,2040.7,1,1,-116,-0.58,0.58,0.58
55555,male,33,904,23,114,3676.3,1,1,-94,-0.47,0.47,0.47
33333,fema,23,904,23,88,4977,0,1,1,0.005,0.005,0.005
55555,male,33,904,23,17,4559.2,0,1,55,0.275,0.275,0.275
66666,Male,28,904,23,106,4879.6,0,1,104,0.52,0.52,0.52
66666,Male,28,904,23,27,3536.6,1,1,-151,-0.755,0.755,0.755
22222,Male,25,904,23,8,3569.3,0,1,77,0.385,0.385,0.385
33333,fema,23,904,23,39,4958,1,1,-2,-0.01,0.01,0.01
66666,Male,28,909,24,28,5955.5,1,1,-30,-0.15,0.15,0.15
33333,fema,23,909,24,95,10858,1,1,-19,-0.095,0.095,0.095
55555,male,33,909,24,47,7455.5,1,1,-75,-0.375,0.375,0.375
55555,male,33,909,24,78,2671.3,0,1,106,0.53,0.53,0.53
33333,fema,23,909,24,18,3840,0,1,200,1,1,1
66666,Male,28,909,24,84,3052.9,0,1,27,0.135,0.135,0.135
22222,Male,25,909,24,96,5088.5,1,-1,29,0.145,0.145,-0.145
22222,Male,25,909,24,24,8617,0,1,26,0.13,0.13,0.13
22222,Male,25,920,25,87,42690.8,1,1,-113,-0.565,0.565,0.565
33333,fema,23,920,25,56,3686,1,1,-200,-1,1,1
33333,fema,23,920,25,72,1946,0,1,200,1,1,1
22222,Male,25,920,25,13,37470.9,0,1,71,0.355,0.355,0.355
66666,Male,28,920,25,70,3803.4,1,1,-47,-0.235,0.235,0.235
55555,male,33,920,25,42,9583.7,1,1,-8,-0.04,0.04,0.04
66666,Male,28,920,25,14,11662.6,0,1,7,0.035,0.035,0.035
55555,male,33,920,25,125,3654.7,0,-1,-20,-0.1,0.1,-0.1
55555,male,33,938,26,80,4567,0,1,104,0.52,0.52,0.52
33333,fema,23,938,26,97,3811,0,1,31,0.155,0.155,0.155
55555,male,33,938,26,13,7040.5,1,1,-99,-0.495,0.495,0.495
33333,fema,23,938,26,11,11480,1,1,-85,-0.425,0.425,0.425
66666,Male,28,938,26,33,3013.1,0,1,93,0.465,0.465,0.465
66666,Male,28,938,26,125,2056.4,1,1,-107,-0.535,0.535,0.535
22222,Male,25,938,26,126,3156,1,1,-85,-0.425,0.425,0.425
22222,Male,25,938,26,12,10592.4,0,1,100,0.5,0.5,0.5
66666,Male,28,949,27,8,11994,1,1,-23,-0.115,0.115,0.115
33333,fema,23,949,27,40,26384,0,1,40,0.2,0.2,0.2
55555,male,33,949,27,53,6038.3,0,-1,-18,-0.09,0.09,-0.09
22222,Male,25,949,27,117,2008.2,0,1,135,0.675,0.675,0.675
55555,male,33,949,27,76,4020,1,1,-6,-0.03,0.03,0.03
33333,fema,23,949,27,115,8954,1,-1,0,0,0,0
22222,Male,25,949,27,42,3988.1,1,1,-44,-0.22,0.22,0.22
66666,Male,28,949,27,80,2031.5,0,1,70,0.35,0.35,0.35
66666,Male,28,955,28,113,2427.9,0,1,75,0.375,0.375,0.375
55555,male,33,955,28,40,14472.6,1,1,-48,-0.24,0.24,0.24
33333,fema,23,955,28,51,17879,0,1,26,0.13,0.13,0.13
66666,Male,28,955,28,50,3235.8,1,1,-45,-0.225,0.225,0.225
55555,male,33,955,28,84,42208.1,0,1,19,0.095,0.095,0.095
33333,fema,23,955,28,120,6977,1,-1,0,0,0,0
22222,Male,25,955,28,47,3432.6,0,1,62,0.31,0.31,0.31
22222,Male,25,955,28,74,3470.3,1,1,-128,-0.64,0.64,0.64
33333,fema,23,957,29,67,5786,0,-1,-1,-0.005,0.005,-0.005
66666,Male,28,957,29,124,1933.5,0,1,83,0.415,0.415,0.415
66666,Male,28,957,29,21,2803.8,1,1,-131,-0.655,0.655,0.655
22222,Male,25,957,29,26,3150.9,0,1,131,0.655,0.655,0.655
55555,male,33,957,29,51,6115.7,0,1,18,0.09,0.09,0.09
33333,fema,23,957,29,103,5044,1,-1,3,0.015,0.015,-0.015
55555,male,33,957,29,95,3377.1,1,1,-60,-0.3,0.3,0.3
22222,Male,25,957,29,107,4906.1,1,1,-94,-0.47,0.47,0.47
33333,fema,23,976,30,85,2714,0,1,200,1,1,1
22222,Male,25,976,30,129,4365.6,1,1,-120,-0.6,0.6,0.6
66666,Male,28,976,30,97,2832.6,0,1,150,0.75,0.75,0.75
22222,Male,25,976,30,65,3273.1,0,1,63,0.315,0.315,0.315
55555,male,33,976,30,58,6943.7,1,1,-200,-1,1,1
66666,Male,28,976,30,11,8601.8,1,1,-116,-0.58,0.58,0.58
33333,fema,23,976,30,66,2682,1,1,-200,-1,1,1
55555,male,33,976,30,102,3395.4,0,1,200,1,1,1
33333,fema,23,1019,31,89,2448,0,1,200,1,1,1
22222,Male,25,1019,31,127,2094.5,0,1,121,0.605,0.605,0.605
22222,Male,25,1019,31,14,10075.1,1,1,-63,-0.315,0.315,0.315
66666,Male,28,1019,31,19,3269.8,0,1,175,0.875,0.875,0.875
55555,male,33,1019,31,36,5481,0,1,58,0.29,0.29,0.29
55555,male,33,1019,31,112,3469.6,1,1,-13,-0.065,0.065,0.065
33333,fema,23,1019,31,43,6048,1,1,-200,-1,1,1
66666,Male,28,1019,31,120,2519.2,1,1,-143,-0.715,0.715,0.715
33333,fema,23,1037,32,99,3224,1,1,-200,-1,1,1
66666,Male,28,1037,32,61,1450.3,0,1,200,1,1,1
22222,Male,25,1037,32,89,2725.4,1,1,-200,-1,1,1
55555,male,33,1037,32,27,2197.3,1,1,-200,-1,1,1
55555,male,33,1037,32,117,1838.6,0,1,200,1,1,1
66666,Male,28,1037,32,129,2363.1,1,1,-200,-1,1,1
33333,fema,23,1037,32,30,5824,0,1,200,1,1,1
22222,Male,25,1037,32,16,5771.4,0,1,200,1,1,1
33333,fema,23,1048,33,128,1943,0,1,200,1,1,1
66666,Male,28,1048,33,88,1823,1,1,-200,-1,1,1
22222,Male,25,1048,33,46,3866.1,0,1,200,1,1,1
55555,male,33,1048,33,55,1821.9,0,1,200,1,1,1
22222,Male,25,1048,33,128,2886.1,1,1,-200,-1,1,1
55555,male,33,1048,33,92,1680.1,1,1,-200,-1,1,1
66666,Male,28,1048,33,67,1633.6,0,1,200,1,1,1
33333,fema,23,1048,33,50,8954,1,1,-200,-1,1,1
22222,Male,25,1073,34,23,3885,0,1,200,1,1,1
66666,Male,28,1073,34,18,2385,1,1,-200,-1,1,1
33333,fema,23,1073,34,76,2338,0,1,200,1,1,1
55555,male,33,1073,34,105,1654.1,0,1,200,1,1,1
55555,male,33,1073,34,52,2017.4,1,1,-200,-1,1,1
66666,Male,28,1073,34,87,1677,0,1,200,1,1,1
33333,fema,23,1073,34,60,2765,1,1,-200,-1,1,1
22222,Male,25,1073,34,73,2719.3,1,1,-200,-1,1,1
66666,Male,28,1109,35,108,2803.5,1,1,-200,-1,1,1
33333,fema,23,1109,35,78,6728,1,1,-97,-0.485,0.485,0.485
55555,male,33,1109,35,10,6551.7,1,1,-200,-1,1,1
66666,Male,28,1109,35,44,3401.7,0,1,188,0.94,0.94,0.94
22222,Male,25,1109,35,112,6005.4,1,1,-82,-0.41,0.41,0.41
33333,fema,23,1109,35,55,3375,0,1,200,1,1,1
55555,male,33,1109,35,77,2014.7,0,1,200,1,1,1
22222,Male,25,1109,35,18,9792.1,0,1,182,0.91,0.91,0.91
55555,male,33,1125,36,61,4675.4,1,1,-16,-0.08,0.08,0.08
66666,Male,28,1125,36,122,2430.9,0,1,181,0.905,0.905,0.905
22222,Male,25,1125,36,108,3057.7,0,1,91,0.455,0.455,0.455
66666,Male,28,1125,36,47,3716.3,1,1,-153,-0.765,0.765,0.765
55555,male,33,1125,36,91,2105.6,0,1,200,1,1,1
33333,fema,23,1125,36,57,8915,0,-1,-1,-0.005,0.005,-0.005
33333,fema,23,1125,36,122,5522,1,-1,0,0,0,0
22222,Male,25,1125,36,61,5309,1,1,-24,-0.12,0.12,0.12
33333,fema,23,1140,37,45,17392,0,-1,-9,-0.045,0.045,-0.045
55555,male,33,1140,37,45,7133.7,0,1,200,1,1,1
33333,fema,23,1140,37,98,4415,1,1,-2,-0.01,0.01,0.01
22222,Male,25,1140,37,40,3196.9,0,1,58,0.29,0.29,0.29
55555,male,33,1140,37,74,2800.9,1,1,-28,-0.14,0.14,0.14
66666,Male,28,1140,37,12,10783.7,0,1,36,0.18,0.18,0.18
22222,Male,25,1140,37,98,2421,1,1,-32,-0.16,0.16,0.16
66666,Male,28,1140,37,73,3131.2,1,1,-145,-0.725,0.725,0.725
33333,fema,23,1177,38,36,4064,0,1,200,1,1,1
33333,fema,23,1177,38,104,2878,1,1,-200,-1,1,1
66666,Male,28,1177,38,112,1871.1,0,1,200,1,1,1
55555,male,33,1177,38,127,3988.1,1,1,-200,-1,1,1
66666,Male,28,1177,38,16,2853.3,1,1,-200,-1,1,1
22222,Male,25,1177,38,106,4604.9,1,1,-120,-0.6,0.6,0.6
55555,male,33,1177,38,46,2189.1,0,1,200,1,1,1
22222,Male,25,1177,38,36,3145,0,1,158,0.79,0.79,0.79
22222,Male,25,1178,39,22,3376.6,0,1,52,0.26,0.26,0.26
66666,Male,28,1178,39,24,2265.1,0,1,200,1,1,1
33333,fema,23,1178,39,84,6673,0,1,199,0.995,0.995,0.995
22222,Male,25,1178,39,78,3081.2,1,1,-23,-0.115,0.115,0.115
66666,Male,28,1178,39,107,2525.1,1,1,-200,-1,1,1
55555,male,33,1178,39,20,9302.4,1,1,-65,-0.325,0.325,0.325
55555,male,33,1178,39,90,7005.1,0,1,151,0.755,0.755,0.755
33333,fema,23,1178,39,47,5411,1,1,-200,-1,1,1
66666,Male,28,1222,40,117,1796.1,0,1,200,1,1,1
33333,fema,23,1222,40,10,4585,1,1,-200,-1,1,1
22222,Male,25,1222,40,121,2289,1,1,-72,-0.36,0.36,0.36
22222,Male,25,1222,40,30,4203.4,0,1,32,0.16,0.16,0.16
55555,male,33,1222,40,68,2749,0,1,39,0.195,0.195,0.195
55555,male,33,1222,40,75,52400.8,1,1,-8,-0.04,0.04,0.04
66666,Male,28,1222,40,51,1954.6,1,1,-200,-1,1,1
33333,fema,23,1222,40,124,2913,0,1,200,1,1,1
33333,fema,23,1234,41,49,2697,1,1,-200,-1,1,1
22222,Male,25,1234,41,68,3181.4,1,1,-24,-0.12,0.12,0.12
66666,Male,28,1234,41,83,3619.7,0,1,200,1,1,1
55555,male,33,1234,41,71,3467.3,1,1,-35,-0.175,0.175,0.175
33333,fema,23,1234,41,129,2763,0,1,106,0.53,0.53,0.53
55555,male,33,1234,41,18,6947.1,0,1,41,0.205,0.205,0.205
22222,Male,25,1234,41,88,9666.3,0,1,33,0.165,0.165,0.165
66666,Male,28,1234,41,29,2767.2,1,1,-200,-1,1,1
55555,male,33,1376,42,56,21103.1,1,1,-19,-0.095,0.095,0.095
33333,fema,23,1376,42,21,31513,0,1,200,1,1,1
22222,Male,25,1376,42,64,2832.3,0,1,33,0.165,0.165,0.165
33333,fema,23,1376,42,96,2394,1,1,-176,-0.88,0.88,0.88
22222,Male,25,1376,42,116,2903.9,1,1,-28,-0.14,0.14,0.14
66666,Male,28,1376,42,91,6188.9,1,1,-32,-0.16,0.16,0.16
55555,male,33,1376,42,89,3154.7,0,-1,-6,-0.03,0.03,-0.03
66666,Male,28,1376,42,42,13463.8,0,-1,-12,-0.06,0.06,-0.06
22222,Male,25,1418,43,110,2695.1,1,1,-159,-0.795,0.795,0.795
66666,Male,28,1418,43,103,1745.9,0,1,57,0.285,0.285,0.285
22222,Male,25,1418,43,62,1927.9,0,1,122,0.61,0.61,0.61
66666,Male,28,1418,43,10,7477.5,1,1,-154,-0.77,0.77,0.77
55555,male,33,1418,43,99,1906.3,1,1,-200,-1,1,1
33333,fema,23,1418,43,125,3029,0,1,200,1,1,1
55555,male,33,1418,43,16,5033.7,0,1,200,1,1,1
33333,fema,23,1418,43,52,2932,1,1,-200,-1,1,1
66666,Male,28,1442,44,109,2517.7,0,1,78,0.39,0.39,0.39
66666,Male,28,1442,44,35,3307.1,1,1,-134,-0.67,0.67,0.67
22222,Male,25,1442,44,100,2618,0,1,105,0.525,0.525,0.525
55555,male,33,1442,44,73,4475.1,1,1,-19,-0.095,0.095,0.095
22222,Male,25,1442,44,66,2573.5,1,1,-131,-0.655,0.655,0.655
33333,fema,23,1442,44,37,4949,0,1,200,1,1,1
33333,fema,23,1442,44,111,2518,1,1,-200,-1,1,1
55555,male,33,1442,44,63,3547,0,1,200,1,1,1
22222,Male,25,1465,45,115,2417.5,0,1,142,0.71,0.71,0.71
55555,male,33,1465,45,123,4176.6,1,1,-27,-0.135,0.135,0.135
33333,fema,23,1465,45,29,4145,0,1,200,1,1,1
66666,Male,28,1465,45,65,3808.7,0,1,61,0.305,0.305,0.305
66666,Male,28,1465,45,85,3576.6,1,1,-27,-0.135,0.135,0.135
33333,fema,23,1465,45,117,2703,1,1,-200,-1,1,1
55555,male,33,1465,45,19,4936.9,0,1,12,0.06,0.06,0.06
22222,Male,25,1465,45,48,17410.9,1,1,-133,-0.665,0.665,0.665
33333,fema,23,1466,46,13,3796,0,1,200,1,1,1
55555,male,33,1466,46,81,2309.6,0,1,200,1,1,1
66666,Male,28,1466,46,31,2860,1,1,-98,-0.49,0.49,0.49
66666,Male,28,1466,46,102,2135.6,0,1,36,0.18,0.18,0.18
22222,Male,25,1466,46,45,17819.6,1,1,-200,-1,1,1
55555,male,33,1466,46,64,3412.2,1,1,-116,-0.58,0.58,0.58
33333,fema,23,1466,46,114,4934,1,1,-200,-1,1,1
22222,Male,25,1466,46,80,3157,0,1,126,0.63,0.63,0.63
66666,Male,28,1467,47,64,2118.8,0,1,155,0.775,0.775,0.775
22222,Male,25,1467,47,56,6861.7,1,1,-106,-0.53,0.53,0.53
55555,male,33,1467,47,66,2817.3,0,1,21,0.105,0.105,0.105
55555,male,33,1467,47,87,10607.4,1,1,-146,-0.73,0.73,0.73
33333,fema,23,1467,47,91,2489,0,1,200,1,1,1
33333,fema,23,1467,47,63,3162,1,1,-200,-1,1,1
22222,Male,25,1467,47,76,3295.9,0,1,120,0.6,0.6,0.6
66666,Male,28,1467,47,86,3387.4,1,1,-70,-0.35,0.35,0.35
33333,fema,23,1527,48,54,3579,1,1,-200,-1,1,1
66666,Male,28,1527,48,79,3669.3,0,1,61,0.305,0.305,0.305
66666,Male,28,1527,48,32,7763.6,1,1,-8,-0.04,0.04,0.04
55555,male,33,1527,48,119,8335.6,1,1,-38,-0.19,0.19,0.19
22222,Male,25,1527,48,86,3670.7,0,1,48,0.24,0.24,0.24
55555,male,33,1527,48,15,3624.4,0,1,102,0.51,0.51,0.51
33333,fema,23,1527,48,112,3127,0,1,200,1,1,1
22222,Male,25,1527,48,9,3881.3,1,1,-12,-0.06,0.06,0.06
22222,Male,25,1528,49,55,11388.4,0,1,39,0.195,0.195,0.195
55555,male,33,1528,49,44,6332.8,1,-1,53,0.265,0.265,-0.265
33333,fema,23,1528,49,87,2347,0,1,200,1,1,1
66666,Male,28,1528,49,17,4302,0,1,14,0.07,0.07,0.07
55555,male,33,1528,49,79,4659.4,0,-1,-15,-0.075,0.075,-0.075
33333,fema,23,1528,49,16,3978,1,1,-200,-1,1,1
66666,Male,28,1528,49,93,7236.5,1,1,-18,-0.09,0.09,0.09
22222,Male,25,1528,49,79,4326.1,1,1,-5,-0.025,0.025,0.025
22222,Male,25,1558,50,59,4317.9,1,1,-144,-0.72,0.72,0.72
33333,fema,23,1558,50,71,2618,1,1,-200,-1,1,1
33333,fema,23,1558,50,8,3592,0,1,200,1,1,1
66666,Male,28,1558,50,60,2142.5,0,1,133,0.665,0.665,0.665
55555,male,33,1558,50,37,7156.7,1,1,-138,-0.69,0.69,0.69
22222,Male,25,1558,50,101,2467.1,0,1,136,0.68,0.68,0.68
66666,Male,28,1558,50,121,1862.5,1,1,-192,-0.96,0.96,0.96
55555,male,33,1558,50,108,3068.3,0,1,200,1,1,1
22222,Male,25,1638,51,60,3326.7,1,1,-89,-0.445,0.445,0.445
66666,Male,28,1638,51,81,5861.7,1,1,-95,-0.475,0.475,0.475
33333,fema,23,1638,51,75,2532,0,1,200,1,1,1
66666,Male,28,1638,51,58,3375,0,1,40,0.2,0.2,0.2
22222,Male,25,1638,51,84,1910.5,0,1,118,0.59,0.59,0.59
55555,male,33,1638,51,124,6848.8,0,1,87,0.435,0.435,0.435
55555,male,33,1638,51,14,6642,1,1,-200,-1,1,1
33333,fema,23,1638,51,59,2681,1,1,-200,-1,1,1
22222,Male,25,1646,52,99,2653.7,0,1,48,0.24,0.24,0.24
33333,fema,23,1646,52,14,13778,1,1,-170,-0.85,0.85,0.85
66666,Male,28,1646,52,105,3553,0,1,89,0.445,0.445,0.445
33333,fema,23,1646,52,79,5757,0,-1,-3,-0.015,0.015,-0.015
66666,Male,28,1646,52,40,6086.5,1,1,-48,-0.24,0.24,0.24
55555,male,33,1646,52,97,4878.4,0,1,43,0.215,0.215,0.215
55555,male,33,1646,52,67,3250.3,1,1,-23,-0.115,0.115,0.115
22222,Male,25,1646,52,39,5062.6,1,1,-11,-0.055,0.055,0.055
66666,Male,28,1674,53,63,6020.2,1,1,-23,-0.115,0.115,0.115
66666,Male,28,1674,53,99,2457.9,0,1,113,0.565,0.565,0.565
22222,Male,25,1674,53,21,5630.2,1,1,-84,-0.42,0.42,0.42
22222,Male,25,1674,53,85,2669,0,1,45,0.225,0.225,0.225
33333,fema,23,1674,53,62,13891,0,1,16,0.08,0.08,0.08
55555,male,33,1674,53,30,8866.6,0,1,88,0.44,0.44,0.44
55555,male,33,1674,53,100,3046.8,1,1,-53,-0.265,0.265,0.265
33333,fema,23,1674,53,100,7159,1,1,-33,-0.165,0.165,0.165
22222,Male,25,1776,54,33,2808.4,1,1,-91,-0.455,0.455,0.455
66666,Male,28,1776,54,111,3227.6,0,1,155,0.775,0.775,0.775
33333,fema,23,1776,54,15,3424,0,1,200,1,1,1
33333,fema,23,1776,54,116,5471,1,1,-200,-1,1,1
66666,Male,28,1776,54,57,2685.2,1,1,-143,-0.715,0.715,0.715
55555,male,33,1776,54,57,3893.8,1,1,-200,-1,1,1
22222,Male,25,1776,54,123,3558.4,0,1,130,0.65,0.65,0.65
55555,male,33,1776,54,110,4112.7,0,1,200,1,1,1
22222,Male,25,1784,55,25,2621.9,0,1,160,0.8,0.8,0.8
22222,Male,25,1784,55,92,4314,1,1,-126,-0.63,0.63,0.63
66666,Male,28,1784,55,37,2504.7,0,1,157,0.785,0.785,0.785
66666,Male,28,1784,55,126,3103.4,1,1,-172,-0.86,0.86,0.86
33333,fema,23,1784,55,34,5738,0,1,200,1,1,1
33333,fema,23,1784,55,123,2228,1,1,-200,-1,1,1
55555,male,33,1784,55,24,2338.9,1,1,-200,-1,1,1
55555,male,33,1784,55,107,4335.6,0,1,200,1,1,1
55555,male,33,1803,56,39,40952,1,1,-48,-0.24,0.24,0.24
55555,male,33,1803,56,129,3460.8,0,1,7,0.035,0.035,0.035
66666,Male,28,1803,56,89,3453.9,0,1,45,0.225,0.225,0.225
66666,Male,28,1803,56,59,3323.4,1,1,-51,-0.255,0.255,0.255
22222,Male,25,1803,56,20,22155.2,0,1,98,0.49,0.49,0.49
33333,fema,23,1803,56,41,7937,1,1,-65,-0.325,0.325,0.325
33333,fema,23,1803,56,82,6422,0,1,105,0.525,0.525,0.525
22222,Male,25,1803,56,72,5708.6,1,1,-70,-0.35,0.35,0.35
33333,fema,23,1807,57,74,2856,0,1,200,1,1,1
55555,male,33,1807,57,28,5576.4,0,1,97,0.485,0.485,0.485
66666,Male,28,1807,57,23,2104.2,0,1,160,0.8,0.8,0.8
22222,Male,25,1807,57,52,10039,0,1,109,0.545,0.545,0.545
55555,male,33,1807,57,120,3502.1,1,1,-66,-0.33,0.33,0.33
33333,fema,23,1807,57,33,8332,1,1,-97,-0.485,0.485,0.485
66666,Male,28,1807,57,116,3058.9,1,1,-146,-0.73,0.73,0.73
22222,Male,25,1807,57,122,2460.9,1,1,-125,-0.625,0.625,0.625
55555,male,33,darknessCheck1,58,96,6512.2,0,-1,-4,-0.02,0.02,-0.02
22222,Male,25,darknessCheck1,58,53,22409.1,0,1,10,0.05,0.05,0.05
33333,fema,23,darknessCheck1,58,73,7965,1,1,-2,-0.01,0.01,0.01
66666,Male,28,darknessCheck1,58,75,1768.8,1,-1,18,0.09,0.09,-0.09
66666,Male,28,darknessCheck1,58,22,4851,0,-1,-28,-0.14,0.14,-0.14
33333,fema,23,darknessCheck1,58,58,7311,0,1,0,0,0,0
55555,male,33,darknessCheck1,58,25,9369,1,-1,6,0.03,0.03,-0.03
22222,Male,25,darknessCheck1,58,70,4129.2,1,1,-9,-0.045,0.045,0.045
22222,Male,25,darknessCheck2,59,54,6192.4,0,-1,-9,-0.045,0.045,-0.045
66666,Male,28,darknessCheck2,59,56,5951.4,1,1,-8,-0.04,0.04,0.04
55555,male,33,darknessCheck2,59,101,4138,0,1,10,0.05,0.05,0.05
66666,Male,28,darknessCheck2,59,78,2837.9,0,-1,-11,-0.055,0.055,-0.055
33333,fema,23,darknessCheck2,59,126,3150,1,-1,1,0.005,0.005,-0.005
22222,Male,25,darknessCheck2,59,103,4353.7,1,-1,5,0.025,0.025,-0.025
33333,fema,23,darknessCheck2,59,31,16272,0,-1,-14,-0.07,0.07,-0.07
55555,male,33,darknessCheck2,59,38,5128.9,1,-1,9,0.045,0.045,-0.045
33333,fema,23,darknessCheck3,60,25,3148,1,1,200,-1,1,1
55555,male,33,darknessCheck3,60,122,1828.6,1,1,200,-1,1,1
55555,male,33,darknessCheck3,60,33,2122.6,0,1,-200,1,1,1
66666,Male,28,darknessCheck3,60,52,2199.8,0,1,-200,1,1,1
66666,Male,28,darknessCheck3,60,98,1454,1,1,200,-1,1,1
22222,Male,25,darknessCheck3,60,130,2639,1,1,200,-1,1,1
33333,fema,23,darknessCheck3,60,108,2477,0,1,-200,1,1,1
22222,Male,25,darknessCheck3,60,51,11764.9,0,1,-200,1,1,1
