,subjectID,responses,question_order,trial_type,trial_index,rt,time_elapsed,condition,correct,response,prompt,color_rgb,concept,time_finished,rowID,color_index,concept_category,subject_id,workerID,stimulus,stimulusLeft,stimulusRight,Age,Gender,Gender2
1,a4o09mqtpl,,,call-function,1,0,13,0,NA,0,,NA,NA,0,697,0,NA,a4o09mqtpl,55555,,,,33,male,M
2,a4o09mqtpl,"{""Consent"":[""<strong>I consent</strong>""]}",[0],survey-multi-selectMAS,2,83470.7,83486,0,NA,0,,NA,NA,0,698,0,NA,a4o09mqtpl,55555,,,,33,male,M
3,a4o09mqtpl,,,html-button-response,3,4654,88141,0,NA,0,,NA,NA,0,699,0,NA,a4o09mqtpl,55555,Welcome! <p> This experiment involves two parts: demographic information followed by an experimental task.<p> It will take about 15 minutes to complete all parts.,,,33,male,M
4,a4o09mqtpl,"{""Age"":""33"",""Gender"":""male"",""Race/ethnicity"":""white"",""Languages"":""english (fluent); spanish (basic)""}",,survey-text,4,44967.1,133114,0,NA,0,,NA,NA,0,700,0,NA,a4o09mqtpl,55555,,,,33,male,M
5,a4o09mqtpl,,,html-keyboard-response,5,12484.3,145600,0,NA,0,,NA,NA,0,701,0,NA,a4o09mqtpl,55555,<p>Great job!</p> You have completed the consent process and answered the demographic questions.<p> Press the spacebar to continue to the experimental task. </p>,,,33,male,M
6,a4o09mqtpl,,,html-button-response,6,27062,172663,0,NA,0,,NA,NA,0,702,0,NA,a4o09mqtpl,55555,"<p>During this experiment you will be asked to compare the darkness between two colors.<p>Below is a color scale ranging from black to white. Colors near the left are darker, with black being the darkest, and colors near the right are lighter, with white being the lightest. All colors fall somewhere along this dimension ranging for dark to light<div style= ""height:100px;width:100px;border:00px solid powderblue;display: inline-block;background:#000000""></div><div style= ""height:100px;width:100px;border:00px solid powderblue;display: inline-block;background:#383838""></div><div style= ""height:100px;width:100px;border:00px solid powderblue;display: inline-block;background:#707070""></div><div style= ""height:100px;width:100px;border:00px solid powderblue;display: inline-block;background:#A8A8A8""></div><div style= ""height:100px;width:100px;border:00px solid powderblue;display: inline-block;background:#ffffff""></div><p> Please keep this idea of darkness in mind during the experiment<p>Press Next to continue to the task instructions",,,33,male,M
7,a4o09mqtpl,,,image-slider-responseMAS-twoColors,7,37148.6,209813,0,NA,0,,NA,NA,0,703,0,NA,a4o09mqtpl,55555,,"<div style= ""height:100px;width:100px;border:00px solid powderblue;display: inline-block;background:#000000""></div>","<div style= ""height:100px;width:100px;border:00px solid powderblue;display: inline-block;background:#ffffff""></div>",33,male,M
8,a4o09mqtpl,,,image-slider-responseMAS-twoColors,8,24620,234934,0,NA,98,,NA,0,1.65E+12,704,16,NA,a4o09mqtpl,55555,,"<div style= ""height:100px;width:100px;border:00px solid powderblue;display: inline-block;background:#67cf5c""></div>","<div style= ""height:100px;width:100px;border:00px solid powderblue;display: inline-block;background:#1c3d61""></div>",33,male,M
9,a4o09mqtpl,,,image-slider-responseMAS-twoColors,9,11146.9,246587,0,NA,-24,,NA,0,1.65E+12,705,9,NA,a4o09mqtpl,55555,,"<div style= ""height:100px;width:100px;border:00px solid powderblue;display: inline-block;background:#f7db7c""></div>","<div style= ""height:100px;width:100px;border:00px solid powderblue;display: inline-block;background:#746bca""></div>",33,male,M
10,a4o09mqtpl,,,image-slider-responseMAS-twoColors,10,6551.7,253645,0,NA,-200,,NA,1,1.65E+12,706,35,NA,a4o09mqtpl,55555,,"<div style= ""height:100px;width:100px;border:00px solid powderblue;display: inline-block;background:#3b3b3b""></div>","<div style= ""height:100px;width:100px;border:00px solid powderblue;display: inline-block;background:#73cf10""></div>",33,male,M
11,a4o09mqtpl,,,image-slider-responseMAS-twoColors,11,30537.4,284688,0,NA,-200,,NA,1,1.65E+12,707,21,NA,a4o09mqtpl,55555,,"<div style= ""height:100px;width:100px;border:00px solid powderblue;display: inline-block;background:#3b8378""></div>","<div style= ""height:100px;width:100px;border:00px solid powderblue;display: inline-block;background:#39f6e0""></div>",33,male,M
12,a4o09mqtpl,,,image-slider-responseMAS-twoColors,12,26352.9,311567,0,NA,-38,,NA,0,1.65E+12,708,18,NA,a4o09mqtpl,55555,,"<div style= ""height:100px;width:100px;border:00px solid powderblue;display: inline-block;background:#fcdb42""></div>","<div style= ""height:100px;width:100px;border:00px solid powderblue;display: inline-block;background:#90689f""></div>",33,male,M
13,a4o09mqtpl,,,image-slider-responseMAS-twoColors,13,7040.5,319111,0,NA,-99,,NA,1,1.65E+12,709,26,NA,a4o09mqtpl,55555,,"<div style= ""height:100px;width:100px;border:00px solid powderblue;display: inline-block;background:#3b8378""></div>","<div style= ""height:100px;width:100px;border:00px solid powderblue;display: inline-block;background:#baeaaf""></div>",33,male,M
14,a4o09mqtpl,,,image-slider-responseMAS-twoColors,14,6642,326256,0,NA,-200,,NA,1,1.65E+12,710,51,NA,a4o09mqtpl,55555,,"<div style= ""height:100px;width:100px;border:00px solid powderblue;display: inline-block;background:#632b14""></div>","<div style= ""height:100px;width:100px;border:00px solid powderblue;display: inline-block;background:#d0e942""></div>",33,male,M
15,a4o09mqtpl,,,image-slider-responseMAS-twoColors,15,3624.4,330382,0,NA,102,,NA,0,1.65E+12,711,48,NA,a4o09mqtpl,55555,,"<div style= ""height:100px;width:100px;border:00px solid powderblue;display: inline-block;background:#baeaaf""></div>","<div style= ""height:100px;width:100px;border:00px solid powderblue;display: inline-block;background:#cc4f1b""></div>",33,male,M
16,a4o09mqtpl,,,image-slider-responseMAS-twoColors,16,5033.7,335921,0,NA,200,,NA,0,1.65E+12,712,43,NA,a4o09mqtpl,55555,,"<div style= ""height:100px;width:100px;border:00px solid powderblue;display: inline-block;background:#73f5b0""></div>","<div style= ""height:100px;width:100px;border:00px solid powderblue;display: inline-block;background:#632b14""></div>",33,male,M
17,a4o09mqtpl,,,image-slider-responseMAS-twoColors,17,4559.2,340983,0,NA,55,,NA,0,1.65E+12,713,23,NA,a4o09mqtpl,55555,,"<div style= ""height:100px;width:100px;border:00px solid powderblue;display: inline-block;background:#39f6e0""></div>","<div style= ""height:100px;width:100px;border:00px solid powderblue;display: inline-block;background:#83764c""></div>",33,male,M
18,a4o09mqtpl,,,image-slider-responseMAS-twoColors,18,6947.1,348432,0,NA,41,,NA,0,1.65E+12,714,41,NA,a4o09mqtpl,55555,,"<div style= ""height:100px;width:100px;border:00px solid powderblue;display: inline-block;background:#dddddd""></div>","<div style= ""height:100px;width:100px;border:00px solid powderblue;display: inline-block;background:#e81a4b""></div>",33,male,M
19,a4o09mqtpl,,,image-slider-responseMAS-twoColors,19,4936.9,353875,0,NA,12,,NA,0,1.65E+12,715,45,NA,a4o09mqtpl,55555,,"<div style= ""height:100px;width:100px;border:00px solid powderblue;display: inline-block;background:#d5b811""></div>","<div style= ""height:100px;width:100px;border:00px solid powderblue;display: inline-block;background:#184415""></div>",33,male,M
20,a4o09mqtpl,,,image-slider-responseMAS-twoColors,20,9302.4,363680,0,NA,-65,,NA,1,1.65E+12,716,39,NA,a4o09mqtpl,55555,,"<div style= ""height:100px;width:100px;border:00px solid powderblue;display: inline-block;background:#a06776""></div>","<div style= ""height:100px;width:100px;border:00px solid powderblue;display: inline-block;background:#ffffff""></div>",33,male,M
21,a4o09mqtpl,,,image-slider-responseMAS-twoColors,21,7225.6,371411,0,NA,-32,,NA,0,1.65E+12,717,0,NA,a4o09mqtpl,55555,,"<div style= ""height:100px;width:100px;border:00px solid powderblue;display: inline-block;background:#fcdb42""></div>","<div style= ""height:100px;width:100px;border:00px solid powderblue;display: inline-block;background:#2f6ef6""></div>",33,male,M
22,a4o09mqtpl,,,image-slider-responseMAS-twoColors,22,14949.8,386862,0,NA,-60,,NA,0,1.65E+12,718,10,NA,a4o09mqtpl,55555,,"<div style= ""height:100px;width:100px;border:00px solid powderblue;display: inline-block;background:#fcdb42""></div>","<div style= ""height:100px;width:100px;border:00px solid powderblue;display: inline-block;background:#746bca""></div>",33,male,M
23,a4o09mqtpl,,,image-slider-responseMAS-twoColors,23,6243.1,393608,0,NA,24,,NA,0,1.65E+12,719,4,NA,a4o09mqtpl,55555,,"<div style= ""height:100px;width:100px;border:00px solid powderblue;display: inline-block;background:#a2eade""></div>","<div style= ""height:100px;width:100px;border:00px solid powderblue;display: inline-block;background:#8558f4""></div>",33,male,M
24,a4o09mqtpl,,,image-slider-responseMAS-twoColors,24,2338.9,396448,0,NA,-200,,NA,1,1.65E+12,720,55,NA,a4o09mqtpl,55555,,"<div style= ""height:100px;width:100px;border:00px solid powderblue;display: inline-block;background:#897618""></div>","<div style= ""height:100px;width:100px;border:00px solid powderblue;display: inline-block;background:#fcdb42""></div>",33,male,M
25,a4o09mqtpl,,,image-slider-responseMAS-twoColors,25,9369,406321,0,NA,6,,NA,1,1.65E+12,721,58,NA,a4o09mqtpl,55555,,"<div style= ""height:100px;width:100px;border:00px solid powderblue;display: inline-block;background:#a3c55b""></div>","<div style= ""height:100px;width:100px;border:00px solid powderblue;display: inline-block;background:#a3c55b""></div>",33,male,M
26,a4o09mqtpl,,,image-slider-responseMAS-twoColors,26,4279.6,411102,0,NA,-200,,NA,1,1.65E+12,722,22,NA,a4o09mqtpl,55555,,"<div style= ""height:100px;width:100px;border:00px solid powderblue;display: inline-block;background:#184415""></div>","<div style= ""height:100px;width:100px;border:00px solid powderblue;display: inline-block;background:#39f6e0""></div>",33,male,M
27,a4o09mqtpl,,,image-slider-responseMAS-twoColors,27,2197.3,413801,0,NA,-200,,NA,1,1.65E+12,723,32,NA,a4o09mqtpl,55555,,"<div style= ""height:100px;width:100px;border:00px solid powderblue;display: inline-block;background:#000000""></div>","<div style= ""height:100px;width:100px;border:00px solid powderblue;display: inline-block;background:#c34f74""></div>",33,male,M
28,a4o09mqtpl,,,image-slider-responseMAS-twoColors,28,5576.4,419883,0,NA,97,,NA,0,1.65E+12,724,57,NA,a4o09mqtpl,55555,,"<div style= ""height:100px;width:100px;border:00px solid powderblue;display: inline-block;background:#d0e942""></div>","<div style= ""height:100px;width:100px;border:00px solid powderblue;display: inline-block;background:#ac6619""></div>",33,male,M
29,a4o09mqtpl,,,image-slider-responseMAS-twoColors,29,3850.2,424235,0,NA,158,,NA,0,1.65E+12,725,6,NA,a4o09mqtpl,55555,,"<div style= ""height:100px;width:100px;border:00px solid powderblue;display: inline-block;background:#c7b88b""></div>","<div style= ""height:100px;width:100px;border:00px solid powderblue;display: inline-block;background:#2e3086""></div>",33,male,M
30,a4o09mqtpl,,,image-slider-responseMAS-twoColors,30,8866.6,433603,0,NA,88,,NA,0,1.65E+12,726,53,NA,a4o09mqtpl,55555,,"<div style= ""height:100px;width:100px;border:00px solid powderblue;display: inline-block;background:#8cf47e""></div>","<div style= ""height:100px;width:100px;border:00px solid powderblue;display: inline-block;background:#c94e4b""></div>",33,male,M
31,a4o09mqtpl,,,image-slider-responseMAS-twoColors,31,9123.1,443228,0,NA,-200,,NA,1,1.65E+12,727,15,NA,a4o09mqtpl,55555,,"<div style= ""height:100px;width:100px;border:00px solid powderblue;display: inline-block;background:#72005e""></div>","<div style= ""height:100px;width:100px;border:00px solid powderblue;display: inline-block;background:#4dc7e8""></div>",33,male,M
32,a4o09mqtpl,,,image-slider-responseMAS-twoColors,32,5864.4,449597,0,NA,53,,NA,0,1.65E+12,728,8,NA,a4o09mqtpl,55555,,"<div style= ""height:100px;width:100px;border:00px solid powderblue;display: inline-block;background:#fba714""></div>","<div style= ""height:100px;width:100px;border:00px solid powderblue;display: inline-block;background:#2e3086""></div>",33,male,M
33,a4o09mqtpl,,,image-slider-responseMAS-twoColors,33,2122.6,452225,0,NA,-200,,NA,0,1.65E+12,729,60,NA,a4o09mqtpl,55555,,"<div style= ""height:100px;width:100px;border:00px solid powderblue;display: inline-block;background:#000000""></div>","<div style= ""height:100px;width:100px;border:00px solid powderblue;display: inline-block;background:#ffffff""></div>",33,male,M
34,a4o09mqtpl,,,image-slider-responseMAS-twoColors,34,2544.9,455276,0,NA,-136,,NA,1,1.65E+12,730,12,NA,a4o09mqtpl,55555,,"<div style= ""height:100px;width:100px;border:00px solid powderblue;display: inline-block;background:#600b84""></div>","<div style= ""height:100px;width:100px;border:00px solid powderblue;display: inline-block;background:#e6a8b7""></div>",33,male,M
35,a4o09mqtpl,,,image-slider-responseMAS-twoColors,35,11881.2,467661,0,NA,-26,,NA,1,1.65E+12,731,17,NA,a4o09mqtpl,55555,,"<div style= ""height:100px;width:100px;border:00px solid powderblue;display: inline-block;background:#5e78a1""></div>","<div style= ""height:100px;width:100px;border:00px solid powderblue;display: inline-block;background:#3efe44""></div>",33,male,M
36,a4o09mqtpl,,,image-slider-responseMAS-twoColors,36,5481,473643,0,NA,58,,NA,0,1.65E+12,732,31,NA,a4o09mqtpl,55555,,"<div style= ""height:100px;width:100px;border:00px solid powderblue;display: inline-block;background:#a2eade""></div>","<div style= ""height:100px;width:100px;border:00px solid powderblue;display: inline-block;background:#897618""></div>",33,male,M
37,a4o09mqtpl,,,image-slider-responseMAS-twoColors,37,7156.7,481301,0,NA,-138,,NA,1,1.65E+12,733,50,NA,a4o09mqtpl,55555,,"<div style= ""height:100px;width:100px;border:00px solid powderblue;display: inline-block;background:#443b14""></div>","<div style= ""height:100px;width:100px;border:00px solid powderblue;display: inline-block;background:#d5b811""></div>",33,male,M
38,a4o09mqtpl,,,image-slider-responseMAS-twoColors,38,5128.9,486931,0,NA,9,,NA,1,1.65E+12,734,59,NA,a4o09mqtpl,55555,,"<div style= ""height:100px;width:100px;border:00px solid powderblue;display: inline-block;background:#512d5f""></div>","<div style= ""height:100px;width:100px;border:00px solid powderblue;display: inline-block;background:#512d5f""></div>",33,male,M
39,a4o09mqtpl,,,image-slider-responseMAS-twoColors,39,40952,528386,0,NA,-48,,NA,1,1.65E+12,735,56,NA,a4o09mqtpl,55555,,"<div style= ""height:100px;width:100px;border:00px solid powderblue;display: inline-block;background:#ac6619""></div>","<div style= ""height:100px;width:100px;border:00px solid powderblue;display: inline-block;background:#3efe44""></div>",33,male,M
40,a4o09mqtpl,,,image-slider-responseMAS-twoColors,40,14472.6,543360,0,NA,-48,,NA,1,1.65E+12,736,28,NA,a4o09mqtpl,55555,,"<div style= ""height:100px;width:100px;border:00px solid powderblue;display: inline-block;background:#3b8378""></div>","<div style= ""height:100px;width:100px;border:00px solid powderblue;display: inline-block;background:#d0e942""></div>",33,male,M
41,a4o09mqtpl,,,image-slider-responseMAS-twoColors,41,3942.6,547804,0,NA,59,,NA,0,1.65E+12,737,3,NA,a4o09mqtpl,55555,,"<div style= ""height:100px;width:100px;border:00px solid powderblue;display: inline-block;background:#fba714""></div>","<div style= ""height:100px;width:100px;border:00px solid powderblue;display: inline-block;background:#3518ad""></div>",33,male,M
42,a4o09mqtpl,,,image-slider-responseMAS-twoColors,42,9583.7,557890,0,NA,-8,,NA,1,1.65E+12,738,25,NA,a4o09mqtpl,55555,,"<div style= ""height:100px;width:100px;border:00px solid powderblue;display: inline-block;background:#ea1d1d""></div>","<div style= ""height:100px;width:100px;border:00px solid powderblue;display: inline-block;background:#39f6e0""></div>",33,male,M
43,a4o09mqtpl,,,image-slider-responseMAS-twoColors,43,9081.1,567473,0,NA,-119,,NA,1,1.65E+12,739,20,NA,a4o09mqtpl,55555,,"<div style= ""height:100px;width:100px;border:00px solid powderblue;display: inline-block;background:#72005e""></div>","<div style= ""height:100px;width:100px;border:00px solid powderblue;display: inline-block;background:#f7a75a""></div>",33,male,M
44,a4o09mqtpl,,,image-slider-responseMAS-twoColors,44,6332.8,574310,0,NA,53,,NA,1,1.65E+12,740,49,NA,a4o09mqtpl,55555,,"<div style= ""height:100px;width:100px;border:00px solid powderblue;display: inline-block;background:#ea1d1d""></div>","<div style= ""height:100px;width:100px;border:00px solid powderblue;display: inline-block;background:#baeaaf""></div>",33,male,M
45,a4o09mqtpl,,,image-slider-responseMAS-twoColors,45,7133.7,581946,0,NA,200,,NA,0,1.65E+12,741,37,NA,a4o09mqtpl,55555,,"<div style= ""height:100px;width:100px;border:00px solid powderblue;display: inline-block;background:#9af443""></div>","<div style= ""height:100px;width:100px;border:00px solid powderblue;display: inline-block;background:#777777""></div>",33,male,M
46,a4o09mqtpl,,,image-slider-responseMAS-twoColors,46,2189.1,584637,0,NA,200,,NA,0,1.65E+12,742,38,NA,a4o09mqtpl,55555,,"<div style= ""height:100px;width:100px;border:00px solid powderblue;display: inline-block;background:#ffffff""></div>","<div style= ""height:100px;width:100px;border:00px solid powderblue;display: inline-block;background:#5e2b3a""></div>",33,male,M
47,a4o09mqtpl,,,image-slider-responseMAS-twoColors,47,7455.5,592599,0,NA,-75,,NA,1,1.65E+12,743,24,NA,a4o09mqtpl,55555,,"<div style= ""height:100px;width:100px;border:00px solid powderblue;display: inline-block;background:#c94e4b""></div>","<div style= ""height:100px;width:100px;border:00px solid powderblue;display: inline-block;background:#39f6e0""></div>",33,male,M
48,a4o09mqtpl,,,image-slider-responseMAS-twoColors,48,3252.8,596356,0,NA,97,,NA,0,1.65E+12,744,7,NA,a4o09mqtpl,55555,,"<div style= ""height:100px;width:100px;border:00px solid powderblue;display: inline-block;background:#f1a78a""></div>","<div style= ""height:100px;width:100px;border:00px solid powderblue;display: inline-block;background:#2e3086""></div>",33,male,M
49,a4o09mqtpl,,,image-slider-responseMAS-twoColors,49,5586.7,602448,0,NA,34,,NA,0,1.65E+12,745,2,NA,a4o09mqtpl,55555,,"<div style= ""height:100px;width:100px;border:00px solid powderblue;display: inline-block;background:#e6a8b7""></div>","<div style= ""height:100px;width:100px;border:00px solid powderblue;display: inline-block;background:#3518ad""></div>",33,male,M
50,a4o09mqtpl,,,image-slider-responseMAS-twoColors,50,1906.6,604856,0,NA,200,,NA,0,1.65E+12,746,14,NA,a4o09mqtpl,55555,,"<div style= ""height:100px;width:100px;border:00px solid powderblue;display: inline-block;background:#4dc7e8""></div>","<div style= ""height:100px;width:100px;border:00px solid powderblue;display: inline-block;background:#1c3d61""></div>",33,male,M
51,a4o09mqtpl,,,image-slider-responseMAS-twoColors,51,6115.7,611478,0,NA,18,,NA,0,1.65E+12,747,29,NA,a4o09mqtpl,55555,,"<div style= ""height:100px;width:100px;border:00px solid powderblue;display: inline-block;background:#fcdb42""></div>","<div style= ""height:100px;width:100px;border:00px solid powderblue;display: inline-block;background:#3b8378""></div>",33,male,M
52,a4o09mqtpl,,,image-slider-responseMAS-twoColors,52,2017.4,613997,0,NA,-200,,NA,1,1.65E+12,748,34,NA,a4o09mqtpl,55555,,"<div style= ""height:100px;width:100px;border:00px solid powderblue;display: inline-block;background:#000000""></div>","<div style= ""height:100px;width:100px;border:00px solid powderblue;display: inline-block;background:#fcdb42""></div>",33,male,M
53,a4o09mqtpl,,,image-slider-responseMAS-twoColors,53,6038.3,620539,0,NA,-18,,NA,0,1.65E+12,749,27,NA,a4o09mqtpl,55555,,"<div style= ""height:100px;width:100px;border:00px solid powderblue;display: inline-block;background:#f7db7c""></div>","<div style= ""height:100px;width:100px;border:00px solid powderblue;display: inline-block;background:#3b8378""></div>",33,male,M
54,a4o09mqtpl,,,image-slider-responseMAS-twoColors,54,11053.3,632095,0,NA,-8,,NA,1,1.65E+12,750,13,NA,a4o09mqtpl,55555,,"<div style= ""height:100px;width:100px;border:00px solid powderblue;display: inline-block;background:#cd26c7""></div>","<div style= ""height:100px;width:100px;border:00px solid powderblue;display: inline-block;background:#a2eade""></div>",33,male,M
55,a4o09mqtpl,,,image-slider-responseMAS-twoColors,55,1821.9,634418,0,NA,200,,NA,0,1.65E+12,751,33,NA,a4o09mqtpl,55555,,"<div style= ""height:100px;width:100px;border:00px solid powderblue;display: inline-block;background:#eddcad""></div>","<div style= ""height:100px;width:100px;border:00px solid powderblue;display: inline-block;background:#000000""></div>",33,male,M
56,a4o09mqtpl,,,image-slider-responseMAS-twoColors,56,21103.1,656024,0,NA,-19,,NA,1,1.65E+12,752,42,NA,a4o09mqtpl,55555,,"<div style= ""height:100px;width:100px;border:00px solid powderblue;display: inline-block;background:#e31b73""></div>","<div style= ""height:100px;width:100px;border:00px solid powderblue;display: inline-block;background:#c8e97d""></div>",33,male,M
57,a4o09mqtpl,,,image-slider-responseMAS-twoColors,57,3893.8,660419,0,NA,-200,,NA,1,1.65E+12,753,54,NA,a4o09mqtpl,55555,,"<div style= ""height:100px;width:100px;border:00px solid powderblue;display: inline-block;background:#897618""></div>","<div style= ""height:100px;width:100px;border:00px solid powderblue;display: inline-block;background:#f7db7c""></div>",33,male,M
58,a4o09mqtpl,,,image-slider-responseMAS-twoColors,58,6943.7,667865,0,NA,-200,,NA,1,1.65E+12,754,30,NA,a4o09mqtpl,55555,,"<div style= ""height:100px;width:100px;border:00px solid powderblue;display: inline-block;background:#632b14""></div>","<div style= ""height:100px;width:100px;border:00px solid powderblue;display: inline-block;background:#7ec6ba""></div>",33,male,M
59,a4o09mqtpl,,,image-slider-responseMAS-twoColors,59,17638.8,686006,0,NA,12,,NA,0,1.65E+12,755,1,NA,a4o09mqtpl,55555,,"<div style= ""height:100px;width:100px;border:00px solid powderblue;display: inline-block;background:#d5a9e4""></div>","<div style= ""height:100px;width:100px;border:00px solid powderblue;display: inline-block;background:#3518ad""></div>",33,male,M
60,a4o09mqtpl,,,image-slider-responseMAS-twoColors,60,4346.2,690853,0,NA,-200,,NA,1,1.65E+12,756,19,NA,a4o09mqtpl,55555,,"<div style= ""height:100px;width:100px;border:00px solid powderblue;display: inline-block;background:#632b14""></div>","<div style= ""height:100px;width:100px;border:00px solid powderblue;display: inline-block;background:#d5a9e4""></div>",33,male,M
61,a4o09mqtpl,,,image-slider-responseMAS-twoColors,61,4675.4,696031,0,NA,-16,,NA,1,1.65E+12,757,36,NA,a4o09mqtpl,55555,,"<div style= ""height:100px;width:100px;border:00px solid powderblue;display: inline-block;background:#777777""></div>","<div style= ""height:100px;width:100px;border:00px solid powderblue;display: inline-block;background:#baeaaf""></div>",33,male,M
62,a4o09mqtpl,,,image-slider-responseMAS-twoColors,62,3452.7,699986,0,NA,-10,,NA,1,1.65E+12,758,5,NA,a4o09mqtpl,55555,,"<div style= ""height:100px;width:100px;border:00px solid powderblue;display: inline-block;background:#077acc""></div>","<div style= ""height:100px;width:100px;border:00px solid powderblue;display: inline-block;background:#3efe44""></div>",33,male,M
63,a4o09mqtpl,,,image-slider-responseMAS-twoColors,63,3547,704039,0,NA,200,,NA,0,1.65E+12,759,44,NA,a4o09mqtpl,55555,,"<div style= ""height:100px;width:100px;border:00px solid powderblue;display: inline-block;background:#eddcad""></div>","<div style= ""height:100px;width:100px;border:00px solid powderblue;display: inline-block;background:#184415""></div>",33,male,M
64,a4o09mqtpl,,,image-slider-responseMAS-twoColors,64,3412.2,707954,0,NA,-116,,NA,1,1.65E+12,760,46,NA,a4o09mqtpl,55555,,"<div style= ""height:100px;width:100px;border:00px solid powderblue;display: inline-block;background:#184415""></div>","<div style= ""height:100px;width:100px;border:00px solid powderblue;display: inline-block;background:#fcdb42""></div>",33,male,M
65,a4o09mqtpl,,,image-slider-responseMAS-twoColors,65,5949.8,714409,0,NA,-71,,NA,1,1.65E+12,761,11,NA,a4o09mqtpl,55555,,"<div style= ""height:100px;width:100px;border:00px solid powderblue;display: inline-block;background:#600b84""></div>","<div style= ""height:100px;width:100px;border:00px solid powderblue;display: inline-block;background:#a0bae6""></div>",33,male,M
66,a4o09mqtpl,,,image-slider-responseMAS-twoColors,66,2817.3,717732,0,NA,21,,NA,0,1.65E+12,762,47,NA,a4o09mqtpl,55555,,"<div style= ""height:100px;width:100px;border:00px solid powderblue;display: inline-block;background:#fba714""></div>","<div style= ""height:100px;width:100px;border:00px solid powderblue;display: inline-block;background:#184415""></div>",33,male,M
67,a4o09mqtpl,,,image-slider-responseMAS-twoColors,67,3250.3,721484,0,NA,-23,,NA,1,1.65E+12,763,52,NA,a4o09mqtpl,55555,,"<div style= ""height:100px;width:100px;border:00px solid powderblue;display: inline-block;background:#a8664b""></div>","<div style= ""height:100px;width:100px;border:00px solid powderblue;display: inline-block;background:#c8e97d""></div>",33,male,M
68,a4o09mqtpl,,,image-slider-responseMAS-twoColors,68,2749,724734,0,NA,39,,NA,0,1.65E+12,764,40,NA,a4o09mqtpl,55555,,"<div style= ""height:100px;width:100px;border:00px solid powderblue;display: inline-block;background:#dddddd""></div>","<div style= ""height:100px;width:100px;border:00px solid powderblue;display: inline-block;background:#e31b73""></div>",33,male,M
69,a4o09mqtpl,,,html-button-response,69,2523.8,727760,0,NA,0,,NA,NA,0,765,0,NA,a4o09mqtpl,55555,<p>Great Job! You've finished block 1.<br></br> You have 1 block left to go.<br></br></p>,,,33,male,M
70,a4o09mqtpl,,,image-slider-responseMAS-twoColors,70,7431.2,735192,0,NA,-161,,NA,1,1.65E+12,766,14,NA,a4o09mqtpl,55555,,"<div style= ""height:100px;width:100px;border:00px solid powderblue;display: inline-block;background:#1c3d61""></div>","<div style= ""height:100px;width:100px;border:00px solid powderblue;display: inline-block;background:#4dc7e8""></div>",33,male,M
71,a4o09mqtpl,,,image-slider-responseMAS-twoColors,71,3467.3,739162,0,NA,-35,,NA,1,1.65E+12,767,41,NA,a4o09mqtpl,55555,,"<div style= ""height:100px;width:100px;border:00px solid powderblue;display: inline-block;background:#e81a4b""></div>","<div style= ""height:100px;width:100px;border:00px solid powderblue;display: inline-block;background:#dddddd""></div>",33,male,M
72,a4o09mqtpl,,,image-slider-responseMAS-twoColors,72,8268.2,747933,0,NA,200,,NA,0,1.65E+12,768,19,NA,a4o09mqtpl,55555,,"<div style= ""height:100px;width:100px;border:00px solid powderblue;display: inline-block;background:#d5a9e4""></div>","<div style= ""height:100px;width:100px;border:00px solid powderblue;display: inline-block;background:#632b14""></div>",33,male,M
73,a4o09mqtpl,,,image-slider-responseMAS-twoColors,73,4475.1,752910,0,NA,-19,,NA,1,1.65E+12,769,44,NA,a4o09mqtpl,55555,,"<div style= ""height:100px;width:100px;border:00px solid powderblue;display: inline-block;background:#184415""></div>","<div style= ""height:100px;width:100px;border:00px solid powderblue;display: inline-block;background:#eddcad""></div>",33,male,M
74,a4o09mqtpl,,,image-slider-responseMAS-twoColors,74,2800.9,756216,0,NA,-28,,NA,1,1.65E+12,770,37,NA,a4o09mqtpl,55555,,"<div style= ""height:100px;width:100px;border:00px solid powderblue;display: inline-block;background:#777777""></div>","<div style= ""height:100px;width:100px;border:00px solid powderblue;display: inline-block;background:#9af443""></div>",33,male,M
75,a4o09mqtpl,,,image-slider-responseMAS-twoColors,75,52400.8,809121,0,NA,-8,,NA,1,1.65E+12,771,40,NA,a4o09mqtpl,55555,,"<div style= ""height:100px;width:100px;border:00px solid powderblue;display: inline-block;background:#e31b73""></div>","<div style= ""height:100px;width:100px;border:00px solid powderblue;display: inline-block;background:#dddddd""></div>",33,male,M
76,a4o09mqtpl,,,image-slider-responseMAS-twoColors,76,4020,813642,0,NA,-6,,NA,1,1.65E+12,772,27,NA,a4o09mqtpl,55555,,"<div style= ""height:100px;width:100px;border:00px solid powderblue;display: inline-block;background:#3b8378""></div>","<div style= ""height:100px;width:100px;border:00px solid powderblue;display: inline-block;background:#f7db7c""></div>",33,male,M
77,a4o09mqtpl,,,image-slider-responseMAS-twoColors,77,2014.7,816160,0,NA,200,,NA,0,1.65E+12,773,35,NA,a4o09mqtpl,55555,,"<div style= ""height:100px;width:100px;border:00px solid powderblue;display: inline-block;background:#73cf10""></div>","<div style= ""height:100px;width:100px;border:00px solid powderblue;display: inline-block;background:#3b3b3b""></div>",33,male,M
78,a4o09mqtpl,,,image-slider-responseMAS-twoColors,78,2671.3,819334,0,NA,106,,NA,0,1.65E+12,774,24,NA,a4o09mqtpl,55555,,"<div style= ""height:100px;width:100px;border:00px solid powderblue;display: inline-block;background:#39f6e0""></div>","<div style= ""height:100px;width:100px;border:00px solid powderblue;display: inline-block;background:#c94e4b""></div>",33,male,M
79,a4o09mqtpl,,,image-slider-responseMAS-twoColors,79,4659.4,824496,0,NA,-15,,NA,0,1.65E+12,775,49,NA,a4o09mqtpl,55555,,"<div style= ""height:100px;width:100px;border:00px solid powderblue;display: inline-block;background:#baeaaf""></div>","<div style= ""height:100px;width:100px;border:00px solid powderblue;display: inline-block;background:#ea1d1d""></div>",33,male,M
80,a4o09mqtpl,,,image-slider-responseMAS-twoColors,80,4567,829565,0,NA,104,,NA,0,1.65E+12,776,26,NA,a4o09mqtpl,55555,,"<div style= ""height:100px;width:100px;border:00px solid powderblue;display: inline-block;background:#baeaaf""></div>","<div style= ""height:100px;width:100px;border:00px solid powderblue;display: inline-block;background:#3b8378""></div>",33,male,M
81,a4o09mqtpl,,,image-slider-responseMAS-twoColors,81,2309.6,832380,0,NA,200,,NA,0,1.65E+12,777,46,NA,a4o09mqtpl,55555,,"<div style= ""height:100px;width:100px;border:00px solid powderblue;display: inline-block;background:#fcdb42""></div>","<div style= ""height:100px;width:100px;border:00px solid powderblue;display: inline-block;background:#184415""></div>",33,male,M
82,a4o09mqtpl,,,image-slider-responseMAS-twoColors,82,8371,841253,0,NA,-60,,NA,1,1.65E+12,778,8,NA,a4o09mqtpl,55555,,"<div style= ""height:100px;width:100px;border:00px solid powderblue;display: inline-block;background:#2e3086""></div>","<div style= ""height:100px;width:100px;border:00px solid powderblue;display: inline-block;background:#fba714""></div>",33,male,M
83,a4o09mqtpl,,,image-slider-responseMAS-twoColors,83,3541.6,845301,0,NA,-59,,NA,1,1.65E+12,779,1,NA,a4o09mqtpl,55555,,"<div style= ""height:100px;width:100px;border:00px solid powderblue;display: inline-block;background:#3518ad""></div>","<div style= ""height:100px;width:100px;border:00px solid powderblue;display: inline-block;background:#d5a9e4""></div>",33,male,M
84,a4o09mqtpl,,,image-slider-responseMAS-twoColors,84,42208.1,888011,0,NA,19,,NA,0,1.65E+12,780,28,NA,a4o09mqtpl,55555,,"<div style= ""height:100px;width:100px;border:00px solid powderblue;display: inline-block;background:#d0e942""></div>","<div style= ""height:100px;width:100px;border:00px solid powderblue;display: inline-block;background:#3b8378""></div>",33,male,M
85,a4o09mqtpl,,,image-slider-responseMAS-twoColors,85,5599.7,894115,0,NA,100,,NA,0,1.65E+12,781,21,NA,a4o09mqtpl,55555,,"<div style= ""height:100px;width:100px;border:00px solid powderblue;display: inline-block;background:#39f6e0""></div>","<div style= ""height:100px;width:100px;border:00px solid powderblue;display: inline-block;background:#3b8378""></div>",33,male,M
86,a4o09mqtpl,,,image-slider-responseMAS-twoColors,86,6141,900759,0,NA,65,,NA,0,1.65E+12,782,17,NA,a4o09mqtpl,55555,,"<div style= ""height:100px;width:100px;border:00px solid powderblue;display: inline-block;background:#3efe44""></div>","<div style= ""height:100px;width:100px;border:00px solid powderblue;display: inline-block;background:#5e78a1""></div>",33,male,M
87,a4o09mqtpl,,,image-slider-responseMAS-twoColors,87,10607.4,911869,0,NA,-146,,NA,1,1.65E+12,783,47,NA,a4o09mqtpl,55555,,"<div style= ""height:100px;width:100px;border:00px solid powderblue;display: inline-block;background:#184415""></div>","<div style= ""height:100px;width:100px;border:00px solid powderblue;display: inline-block;background:#fba714""></div>",33,male,M
88,a4o09mqtpl,,,image-slider-responseMAS-twoColors,88,3024.9,915395,0,NA,-7,,NA,1,1.65E+12,784,3,NA,a4o09mqtpl,55555,,"<div style= ""height:100px;width:100px;border:00px solid powderblue;display: inline-block;background:#3518ad""></div>","<div style= ""height:100px;width:100px;border:00px solid powderblue;display: inline-block;background:#fba714""></div>",33,male,M
89,a4o09mqtpl,,,image-slider-responseMAS-twoColors,89,3154.7,919051,0,NA,-6,,NA,0,1.65E+12,785,42,NA,a4o09mqtpl,55555,,"<div style= ""height:100px;width:100px;border:00px solid powderblue;display: inline-block;background:#c8e97d""></div>","<div style= ""height:100px;width:100px;border:00px solid powderblue;display: inline-block;background:#e31b73""></div>",33,male,M
90,a4o09mqtpl,,,image-slider-responseMAS-twoColors,90,7005.1,926560,0,NA,151,,NA,0,1.65E+12,786,39,NA,a4o09mqtpl,55555,,"<div style= ""height:100px;width:100px;border:00px solid powderblue;display: inline-block;background:#ffffff""></div>","<div style= ""height:100px;width:100px;border:00px solid powderblue;display: inline-block;background:#a06776""></div>",33,male,M
91,a4o09mqtpl,,,image-slider-responseMAS-twoColors,91,2105.6,929171,0,NA,200,,NA,0,1.65E+12,787,36,NA,a4o09mqtpl,55555,,"<div style= ""height:100px;width:100px;border:00px solid powderblue;display: inline-block;background:#baeaaf""></div>","<div style= ""height:100px;width:100px;border:00px solid powderblue;display: inline-block;background:#777777""></div>",33,male,M
92,a4o09mqtpl,,,image-slider-responseMAS-twoColors,92,1680.1,931354,0,NA,-200,,NA,1,1.65E+12,788,33,NA,a4o09mqtpl,55555,,"<div style= ""height:100px;width:100px;border:00px solid powderblue;display: inline-block;background:#000000""></div>","<div style= ""height:100px;width:100px;border:00px solid powderblue;display: inline-block;background:#eddcad""></div>",33,male,M
93,a4o09mqtpl,,,image-slider-responseMAS-twoColors,93,3033.7,934893,0,NA,15,,NA,0,1.65E+12,789,13,NA,a4o09mqtpl,55555,,"<div style= ""height:100px;width:100px;border:00px solid powderblue;display: inline-block;background:#a2eade""></div>","<div style= ""height:100px;width:100px;border:00px solid powderblue;display: inline-block;background:#cd26c7""></div>",33,male,M
94,a4o09mqtpl,,,image-slider-responseMAS-twoColors,94,4055.8,939455,0,NA,-10,,NA,1,1.65E+12,790,10,NA,a4o09mqtpl,55555,,"<div style= ""height:100px;width:100px;border:00px solid powderblue;display: inline-block;background:#746bca""></div>","<div style= ""height:100px;width:100px;border:00px solid powderblue;display: inline-block;background:#fcdb42""></div>",33,male,M
95,a4o09mqtpl,,,image-slider-responseMAS-twoColors,95,3377.1,943337,0,NA,-60,,NA,1,1.65E+12,791,29,NA,a4o09mqtpl,55555,,"<div style= ""height:100px;width:100px;border:00px solid powderblue;display: inline-block;background:#3b8378""></div>","<div style= ""height:100px;width:100px;border:00px solid powderblue;display: inline-block;background:#fcdb42""></div>",33,male,M
96,a4o09mqtpl,,,image-slider-responseMAS-twoColors,96,6512.2,950356,0,NA,-4,,NA,0,1.65E+12,792,58,NA,a4o09mqtpl,55555,,"<div style= ""height:100px;width:100px;border:00px solid powderblue;display: inline-block;background:#a3c55b""></div>","<div style= ""height:100px;width:100px;border:00px solid powderblue;display: inline-block;background:#a3c55b""></div>",33,male,M
97,a4o09mqtpl,,,image-slider-responseMAS-twoColors,97,4878.4,955736,0,NA,43,,NA,0,1.65E+12,793,52,NA,a4o09mqtpl,55555,,"<div style= ""height:100px;width:100px;border:00px solid powderblue;display: inline-block;background:#c8e97d""></div>","<div style= ""height:100px;width:100px;border:00px solid powderblue;display: inline-block;background:#a8664b""></div>",33,male,M
98,a4o09mqtpl,,,image-slider-responseMAS-twoColors,98,2947.6,959190,0,NA,101,,NA,0,1.65E+12,794,11,NA,a4o09mqtpl,55555,,"<div style= ""height:100px;width:100px;border:00px solid powderblue;display: inline-block;background:#a0bae6""></div>","<div style= ""height:100px;width:100px;border:00px solid powderblue;display: inline-block;background:#600b84""></div>",33,male,M
99,a4o09mqtpl,,,image-slider-responseMAS-twoColors,99,1906.3,961598,0,NA,-200,,NA,1,1.65E+12,795,43,NA,a4o09mqtpl,55555,,"<div style= ""height:100px;width:100px;border:00px solid powderblue;display: inline-block;background:#632b14""></div>","<div style= ""height:100px;width:100px;border:00px solid powderblue;display: inline-block;background:#73f5b0""></div>",33,male,M
100,a4o09mqtpl,,,image-slider-responseMAS-twoColors,100,3046.8,965146,0,NA,-53,,NA,1,1.65E+12,796,53,NA,a4o09mqtpl,55555,,"<div style= ""height:100px;width:100px;border:00px solid powderblue;display: inline-block;background:#c94e4b""></div>","<div style= ""height:100px;width:100px;border:00px solid powderblue;display: inline-block;background:#8cf47e""></div>",33,male,M
101,a4o09mqtpl,,,image-slider-responseMAS-twoColors,101,4138,969786,0,NA,10,,NA,0,1.65E+12,797,59,NA,a4o09mqtpl,55555,,"<div style= ""height:100px;width:100px;border:00px solid powderblue;display: inline-block;background:#512d5f""></div>","<div style= ""height:100px;width:100px;border:00px solid powderblue;display: inline-block;background:#512d5f""></div>",33,male,M
102,a4o09mqtpl,,,image-slider-responseMAS-twoColors,102,3395.4,973684,0,NA,200,,NA,0,1.65E+12,798,30,NA,a4o09mqtpl,55555,,"<div style= ""height:100px;width:100px;border:00px solid powderblue;display: inline-block;background:#7ec6ba""></div>","<div style= ""height:100px;width:100px;border:00px solid powderblue;display: inline-block;background:#632b14""></div>",33,male,M
103,a4o09mqtpl,,,image-slider-responseMAS-twoColors,103,3460.8,977646,0,NA,117,,NA,0,1.65E+12,799,15,NA,a4o09mqtpl,55555,,"<div style= ""height:100px;width:100px;border:00px solid powderblue;display: inline-block;background:#4dc7e8""></div>","<div style= ""height:100px;width:100px;border:00px solid powderblue;display: inline-block;background:#72005e""></div>",33,male,M
104,a4o09mqtpl,,,image-slider-responseMAS-twoColors,104,4075.8,982223,0,NA,15,,NA,1,1.65E+12,800,6,NA,a4o09mqtpl,55555,,"<div style= ""height:100px;width:100px;border:00px solid powderblue;display: inline-block;background:#2e3086""></div>","<div style= ""height:100px;width:100px;border:00px solid powderblue;display: inline-block;background:#c7b88b""></div>",33,male,M
105,a4o09mqtpl,,,image-slider-responseMAS-twoColors,105,1654.1,984382,0,NA,200,,NA,0,1.65E+12,801,34,NA,a4o09mqtpl,55555,,"<div style= ""height:100px;width:100px;border:00px solid powderblue;display: inline-block;background:#fcdb42""></div>","<div style= ""height:100px;width:100px;border:00px solid powderblue;display: inline-block;background:#000000""></div>",33,male,M
106,a4o09mqtpl,,,image-slider-responseMAS-twoColors,106,3674.2,988563,0,NA,104,,NA,0,1.65E+12,802,20,NA,a4o09mqtpl,55555,,"<div style= ""height:100px;width:100px;border:00px solid powderblue;display: inline-block;background:#f7a75a""></div>","<div style= ""height:100px;width:100px;border:00px solid powderblue;display: inline-block;background:#72005e""></div>",33,male,M
107,a4o09mqtpl,,,image-slider-responseMAS-twoColors,107,4335.6,993404,0,NA,200,,NA,0,1.65E+12,803,55,NA,a4o09mqtpl,55555,,"<div style= ""height:100px;width:100px;border:00px solid powderblue;display: inline-block;background:#fcdb42""></div>","<div style= ""height:100px;width:100px;border:00px solid powderblue;display: inline-block;background:#897618""></div>",33,male,M
108,a4o09mqtpl,,,image-slider-responseMAS-twoColors,108,3068.3,996974,0,NA,200,,NA,0,1.65E+12,804,50,NA,a4o09mqtpl,55555,,"<div style= ""height:100px;width:100px;border:00px solid powderblue;display: inline-block;background:#d5b811""></div>","<div style= ""height:100px;width:100px;border:00px solid powderblue;display: inline-block;background:#443b14""></div>",33,male,M
109,a4o09mqtpl,,,image-slider-responseMAS-twoColors,109,4105.3,1001580,0,NA,14,,NA,1,1.65E+12,805,2,NA,a4o09mqtpl,55555,,"<div style= ""height:100px;width:100px;border:00px solid powderblue;display: inline-block;background:#3518ad""></div>","<div style= ""height:100px;width:100px;border:00px solid powderblue;display: inline-block;background:#e6a8b7""></div>",33,male,M
110,a4o09mqtpl,,,image-slider-responseMAS-twoColors,110,4112.7,1006200,0,NA,200,,NA,0,1.65E+12,806,54,NA,a4o09mqtpl,55555,,"<div style= ""height:100px;width:100px;border:00px solid powderblue;display: inline-block;background:#f7db7c""></div>","<div style= ""height:100px;width:100px;border:00px solid powderblue;display: inline-block;background:#897618""></div>",33,male,M
111,a4o09mqtpl,,,image-slider-responseMAS-twoColors,111,2823.3,1009520,0,NA,200,,NA,0,1.65E+12,807,22,NA,a4o09mqtpl,55555,,"<div style= ""height:100px;width:100px;border:00px solid powderblue;display: inline-block;background:#39f6e0""></div>","<div style= ""height:100px;width:100px;border:00px solid powderblue;display: inline-block;background:#184415""></div>",33,male,M
112,a4o09mqtpl,,,image-slider-responseMAS-twoColors,112,3469.6,1013500,0,NA,-13,,NA,1,1.65E+12,808,31,NA,a4o09mqtpl,55555,,"<div style= ""height:100px;width:100px;border:00px solid powderblue;display: inline-block;background:#897618""></div>","<div style= ""height:100px;width:100px;border:00px solid powderblue;display: inline-block;background:#a2eade""></div>",33,male,M
113,a4o09mqtpl,,,image-slider-responseMAS-twoColors,113,4251.9,1018250,0,NA,-14,,NA,1,1.65E+12,809,7,NA,a4o09mqtpl,55555,,"<div style= ""height:100px;width:100px;border:00px solid powderblue;display: inline-block;background:#2e3086""></div>","<div style= ""height:100px;width:100px;border:00px solid powderblue;display: inline-block;background:#f1a78a""></div>",33,male,M
114,a4o09mqtpl,,,image-slider-responseMAS-twoColors,114,3676.3,1022430,0,NA,-94,,NA,1,1.65E+12,810,23,NA,a4o09mqtpl,55555,,"<div style= ""height:100px;width:100px;border:00px solid powderblue;display: inline-block;background:#83764c""></div>","<div style= ""height:100px;width:100px;border:00px solid powderblue;display: inline-block;background:#39f6e0""></div>",33,male,M
115,a4o09mqtpl,,,image-slider-responseMAS-twoColors,115,4151,1027080,0,NA,-93,,NA,1,1.65E+12,811,16,NA,a4o09mqtpl,55555,,"<div style= ""height:100px;width:100px;border:00px solid powderblue;display: inline-block;background:#1c3d61""></div>","<div style= ""height:100px;width:100px;border:00px solid powderblue;display: inline-block;background:#67cf5c""></div>",33,male,M
116,a4o09mqtpl,,,image-slider-responseMAS-twoColors,116,3137.7,1030720,0,NA,41,,NA,0,1.65E+12,812,5,NA,a4o09mqtpl,55555,,"<div style= ""height:100px;width:100px;border:00px solid powderblue;display: inline-block;background:#3efe44""></div>","<div style= ""height:100px;width:100px;border:00px solid powderblue;display: inline-block;background:#077acc""></div>",33,male,M
117,a4o09mqtpl,,,image-slider-responseMAS-twoColors,117,1838.6,1033060,0,NA,200,,NA,0,1.65E+12,813,32,NA,a4o09mqtpl,55555,,"<div style= ""height:100px;width:100px;border:00px solid powderblue;display: inline-block;background:#c34f74""></div>","<div style= ""height:100px;width:100px;border:00px solid powderblue;display: inline-block;background:#000000""></div>",33,male,M
118,a4o09mqtpl,,,image-slider-responseMAS-twoColors,118,2530.6,1036100,0,NA,89,,NA,0,1.65E+12,814,12,NA,a4o09mqtpl,55555,,"<div style= ""height:100px;width:100px;border:00px solid powderblue;display: inline-block;background:#e6a8b7""></div>","<div style= ""height:100px;width:100px;border:00px solid powderblue;display: inline-block;background:#600b84""></div>",33,male,M
119,a4o09mqtpl,,,image-slider-responseMAS-twoColors,119,8335.6,1044940,0,NA,-38,,NA,1,1.65E+12,815,48,NA,a4o09mqtpl,55555,,"<div style= ""height:100px;width:100px;border:00px solid powderblue;display: inline-block;background:#cc4f1b""></div>","<div style= ""height:100px;width:100px;border:00px solid powderblue;display: inline-block;background:#baeaaf""></div>",33,male,M
120,a4o09mqtpl,,,image-slider-responseMAS-twoColors,120,3502.1,1048950,0,NA,-66,,NA,1,1.65E+12,816,57,NA,a4o09mqtpl,55555,,"<div style= ""height:100px;width:100px;border:00px solid powderblue;display: inline-block;background:#ac6619""></div>","<div style= ""height:100px;width:100px;border:00px solid powderblue;display: inline-block;background:#d0e942""></div>",33,male,M
121,a4o09mqtpl,,,image-slider-responseMAS-twoColors,121,2570.5,1052020,0,NA,-28,,NA,1,1.65E+12,817,4,NA,a4o09mqtpl,55555,,"<div style= ""height:100px;width:100px;border:00px solid powderblue;display: inline-block;background:#8558f4""></div>","<div style= ""height:100px;width:100px;border:00px solid powderblue;display: inline-block;background:#a2eade""></div>",33,male,M
122,a4o09mqtpl,,,image-slider-responseMAS-twoColors,122,1828.6,1054350,0,NA,200,,NA,1,1.65E+12,818,60,NA,a4o09mqtpl,55555,,"<div style= ""height:100px;width:100px;border:00px solid powderblue;display: inline-block;background:#ffffff""></div>","<div style= ""height:100px;width:100px;border:00px solid powderblue;display: inline-block;background:#000000""></div>",33,male,M
123,a4o09mqtpl,,,image-slider-responseMAS-twoColors,123,4176.6,1059030,0,NA,-27,,NA,1,1.65E+12,819,45,NA,a4o09mqtpl,55555,,"<div style= ""height:100px;width:100px;border:00px solid powderblue;display: inline-block;background:#184415""></div>","<div style= ""height:100px;width:100px;border:00px solid powderblue;display: inline-block;background:#d5b811""></div>",33,male,M
124,a4o09mqtpl,,,image-slider-responseMAS-twoColors,124,6848.8,1066380,0,NA,87,,NA,0,1.65E+12,820,51,NA,a4o09mqtpl,55555,,"<div style= ""height:100px;width:100px;border:00px solid powderblue;display: inline-block;background:#d0e942""></div>","<div style= ""height:100px;width:100px;border:00px solid powderblue;display: inline-block;background:#632b14""></div>",33,male,M
125,a4o09mqtpl,,,image-slider-responseMAS-twoColors,125,3654.7,1070530,0,NA,-20,,NA,0,1.65E+12,821,25,NA,a4o09mqtpl,55555,,"<div style= ""height:100px;width:100px;border:00px solid powderblue;display: inline-block;background:#39f6e0""></div>","<div style= ""height:100px;width:100px;border:00px solid powderblue;display: inline-block;background:#ea1d1d""></div>",33,male,M
126,a4o09mqtpl,,,image-slider-responseMAS-twoColors,126,10959.6,1081990,0,NA,-5,,NA,1,1.65E+12,822,9,NA,a4o09mqtpl,55555,,"<div style= ""height:100px;width:100px;border:00px solid powderblue;display: inline-block;background:#746bca""></div>","<div style= ""height:100px;width:100px;border:00px solid powderblue;display: inline-block;background:#f7db7c""></div>",33,male,M
127,a4o09mqtpl,,,image-slider-responseMAS-twoColors,127,3988.1,1086480,0,NA,-200,,NA,1,1.65E+12,823,38,NA,a4o09mqtpl,55555,,"<div style= ""height:100px;width:100px;border:00px solid powderblue;display: inline-block;background:#5e2b3a""></div>","<div style= ""height:100px;width:100px;border:00px solid powderblue;display: inline-block;background:#ffffff""></div>",33,male,M
128,a4o09mqtpl,,,image-slider-responseMAS-twoColors,128,4077.9,1091070,0,NA,12,,NA,1,1.65E+12,824,18,NA,a4o09mqtpl,55555,,"<div style= ""height:100px;width:100px;border:00px solid powderblue;display: inline-block;background:#90689f""></div>","<div style= ""height:100px;width:100px;border:00px solid powderblue;display: inline-block;background:#fcdb42""></div>",33,male,M
129,a4o09mqtpl,,,image-slider-responseMAS-twoColors,129,3460.8,1095030,0,NA,7,,NA,0,1.65E+12,825,56,NA,a4o09mqtpl,55555,,"<div style= ""height:100px;width:100px;border:00px solid powderblue;display: inline-block;background:#3efe44""></div>","<div style= ""height:100px;width:100px;border:00px solid powderblue;display: inline-block;background:#ac6619""></div>",33,male,M
130,a4o09mqtpl,,,image-slider-responseMAS-twoColors,130,2381.4,1097920,0,NA,-4,,NA,1,1.65E+12,826,0,NA,a4o09mqtpl,55555,,"<div style= ""height:100px;width:100px;border:00px solid powderblue;display: inline-block;background:#2f6ef6""></div>","<div style= ""height:100px;width:100px;border:00px solid powderblue;display: inline-block;background:#fcdb42""></div>",33,male,M
131,a4o09mqtpl,,,html-keyboard-response,131,15941.1,1114360,0,NA,0,,NA,NA,0,827,0,NA,a4o09mqtpl,55555,"<p>Next, you will see an image on the screen.<br>If you see a number in the image, please type that number in the box.</p><p>If you do not see a number in the image, please type 'None' in the box.<br>This part of the experiment will take about 1 minute.</p><p>Please press the spacebar to begin.</p>",,,33,male,M
132,a4o09mqtpl,"{""ishihara"":""12""}",,image-text-responseMAS,132,5705.9,1120580,0,1,0,"{""ishihara"":""12""}",NA,NA,0,828,0,NA,a4o09mqtpl,55555,ishiharaPlateImg/IshiharaPlates-0-0.png,,,33,male,M
133,a4o09mqtpl,"{""ishihara"":""6""}",,image-text-responseMAS,133,2779.9,1123360,0,1,0,"{""ishihara"":""6""}",NA,NA,0,829,0,NA,a4o09mqtpl,55555,ishiharaPlateImg/IshiharaPlates-3-0.png,,,33,male,M
134,a4o09mqtpl,"{""ishihara"":""15""}",,image-text-responseMAS,134,3046.4,1126400,0,1,0,"{""ishihara"":""15""}",NA,NA,0,830,0,NA,a4o09mqtpl,55555,ishiharaPlateImg/IshiharaPlates-2-2.png,,,33,male,M
135,a4o09mqtpl,"{""ishihara"":""73""}",,image-text-responseMAS,135,6258,1132660,0,1,0,"{""ishihara"":""73""}",NA,NA,0,831,0,NA,a4o09mqtpl,55555,ishiharaPlateImg/IshiharaPlates-4-3.png,,,33,male,M
136,a4o09mqtpl,"{""ishihara"":""29""}",,image-text-responseMAS,136,2726.1,1135390,0,1,0,"{""ishihara"":""29""}",NA,NA,0,832,0,NA,a4o09mqtpl,55555,ishiharaPlateImg/IshiharaPlates-1-1.png,,,33,male,M
137,a4o09mqtpl,"{""ishihara"":""42""}",,image-text-responseMAS,137,2469.9,1137860,0,1,0,"{""ishihara"":""42""}",NA,NA,0,833,0,NA,a4o09mqtpl,55555,ishiharaPlateImg/IshiharaPlates-5-1.png,,,33,male,M
138,a4o09mqtpl,"{""colorDifficulty"":""No"",""colorBlind"":""No"",""device"":""Computer""}","[0,1,2]",survey-multi-choice,138,15785.2,1153650,0,NA,0,,NA,NA,0,834,0,NA,a4o09mqtpl,55555,,,,33,male,M
139,ca8vfadd85,,,call-function,1,0,15,0,NA,0,,NA,NA,0,280,0,NA,ca8vfadd85,22222,,,,25,Male,M
140,ca8vfadd85,"{""Consent"":[""<strong>I consent</strong>""]}",[0],survey-multi-selectMAS,2,3760.9,3780,0,NA,0,,NA,NA,0,281,0,NA,ca8vfadd85,22222,,,,25,Male,M
141,ca8vfadd85,,,html-button-response,3,2914,6699,0,NA,0,,NA,NA,0,282,0,NA,ca8vfadd85,22222,Welcome! <p> This experiment involves two parts: demographic information followed by an experimental task.<p> It will take about 15 minutes to complete all parts.,,,25,Male,M
142,ca8vfadd85,"{""Age"":""25"",""Gender"":""Male"",""Race/ethnicity"":""Asian"",""Languages"":""JavaScript""}",,survey-text,4,21012.4,27746,0,NA,0,,NA,NA,0,283,0,NA,ca8vfadd85,22222,,,,25,Male,M
143,ca8vfadd85,,,html-keyboard-response,5,1583.5,29331,0,NA,0,,NA,NA,0,284,0,NA,ca8vfadd85,22222,<p>Great job!</p> You have completed the consent process and answered the demographic questions.<p> Press the spacebar to continue to the experimental task. </p>,,,25,Male,M
144,ca8vfadd85,,,html-button-response,6,26178.8,55511,0,NA,0,,NA,NA,0,285,0,NA,ca8vfadd85,22222,"<p>During this experiment you will be asked to compare the darkness between two colors.<p>Below is a color scale ranging from black to white. Colors near the left are darker, with black being the darkest, and colors near the right are lighter, with white being the lightest. All colors fall somewhere along this dimension ranging for dark to light<div style= ""height:100px;width:100px;border:00px solid powderblue;display: inline-block;background:#000000""></div><div style= ""height:100px;width:100px;border:00px solid powderblue;display: inline-block;background:#383838""></div><div style= ""height:100px;width:100px;border:00px solid powderblue;display: inline-block;background:#707070""></div><div style= ""height:100px;width:100px;border:00px solid powderblue;display: inline-block;background:#A8A8A8""></div><div style= ""height:100px;width:100px;border:00px solid powderblue;display: inline-block;background:#ffffff""></div><p> Please keep this idea of darkness in mind during the experiment<p>Press Next to continue to the task instructions",,,25,Male,M
145,ca8vfadd85,,,image-slider-responseMAS-twoColors,7,25600.8,81115,0,NA,0,,NA,NA,0,286,0,NA,ca8vfadd85,22222,,"<div style= ""height:100px;width:100px;border:00px solid powderblue;display: inline-block;background:#000000""></div>","<div style= ""height:100px;width:100px;border:00px solid powderblue;display: inline-block;background:#ffffff""></div>",25,Male,M
146,ca8vfadd85,,,image-slider-responseMAS-twoColors,8,3569.3,85187,0,NA,77,,NA,0,1.65E+12,287,23,NA,ca8vfadd85,22222,,"<div style= ""height:100px;width:100px;border:00px solid powderblue;display: inline-block;background:#39f6e0""></div>","<div style= ""height:100px;width:100px;border:00px solid powderblue;display: inline-block;background:#83764c""></div>",25,Male,M
147,ca8vfadd85,,,image-slider-responseMAS-twoColors,9,3881.3,89577,0,NA,-12,,NA,1,1.65E+12,288,48,NA,ca8vfadd85,22222,,"<div style= ""height:100px;width:100px;border:00px solid powderblue;display: inline-block;background:#cc4f1b""></div>","<div style= ""height:100px;width:100px;border:00px solid powderblue;display: inline-block;background:#baeaaf""></div>",25,Male,M
148,ca8vfadd85,,,image-slider-responseMAS-twoColors,10,4227,94307,0,NA,50,,NA,1,1.65E+12,289,4,NA,ca8vfadd85,22222,,"<div style= ""height:100px;width:100px;border:00px solid powderblue;display: inline-block;background:#8558f4""></div>","<div style= ""height:100px;width:100px;border:00px solid powderblue;display: inline-block;background:#a2eade""></div>",25,Male,M
149,ca8vfadd85,,,image-slider-responseMAS-twoColors,11,7368.3,102177,0,NA,76,,NA,0,1.65E+12,290,11,NA,ca8vfadd85,22222,,"<div style= ""height:100px;width:100px;border:00px solid powderblue;display: inline-block;background:#a0bae6""></div>","<div style= ""height:100px;width:100px;border:00px solid powderblue;display: inline-block;background:#600b84""></div>",25,Male,M
150,ca8vfadd85,,,image-slider-responseMAS-twoColors,12,10592.4,113273,0,NA,100,,NA,0,1.65E+12,291,26,NA,ca8vfadd85,22222,,"<div style= ""height:100px;width:100px;border:00px solid powderblue;display: inline-block;background:#baeaaf""></div>","<div style= ""height:100px;width:100px;border:00px solid powderblue;display: inline-block;background:#3b8378""></div>",25,Male,M
151,ca8vfadd85,,,image-slider-responseMAS-twoColors,13,37470.9,151246,0,NA,71,,NA,0,1.65E+12,292,25,NA,ca8vfadd85,22222,,"<div style= ""height:100px;width:100px;border:00px solid powderblue;display: inline-block;background:#39f6e0""></div>","<div style= ""height:100px;width:100px;border:00px solid powderblue;display: inline-block;background:#ea1d1d""></div>",25,Male,M
152,ca8vfadd85,,,image-slider-responseMAS-twoColors,14,10075.1,161824,0,NA,-63,,NA,1,1.65E+12,293,31,NA,ca8vfadd85,22222,,"<div style= ""height:100px;width:100px;border:00px solid powderblue;display: inline-block;background:#897618""></div>","<div style= ""height:100px;width:100px;border:00px solid powderblue;display: inline-block;background:#a2eade""></div>",25,Male,M
153,ca8vfadd85,,,image-slider-responseMAS-twoColors,15,5710.4,168038,0,NA,-117,,NA,1,1.65E+12,294,7,NA,ca8vfadd85,22222,,"<div style= ""height:100px;width:100px;border:00px solid powderblue;display: inline-block;background:#2e3086""></div>","<div style= ""height:100px;width:100px;border:00px solid powderblue;display: inline-block;background:#f1a78a""></div>",25,Male,M
154,ca8vfadd85,,,image-slider-responseMAS-twoColors,16,5771.4,174317,0,NA,200,,NA,0,1.65E+12,295,32,NA,ca8vfadd85,22222,,"<div style= ""height:100px;width:100px;border:00px solid powderblue;display: inline-block;background:#c34f74""></div>","<div style= ""height:100px;width:100px;border:00px solid powderblue;display: inline-block;background:#000000""></div>",25,Male,M
155,ca8vfadd85,,,image-slider-responseMAS-twoColors,17,4036,178855,0,NA,114,,NA,0,1.65E+12,296,2,NA,ca8vfadd85,22222,,"<div style= ""height:100px;width:100px;border:00px solid powderblue;display: inline-block;background:#e6a8b7""></div>","<div style= ""height:100px;width:100px;border:00px solid powderblue;display: inline-block;background:#3518ad""></div>",25,Male,M
156,ca8vfadd85,,,image-slider-responseMAS-twoColors,18,9792.1,189149,0,NA,182,,NA,0,1.65E+12,297,35,NA,ca8vfadd85,22222,,"<div style= ""height:100px;width:100px;border:00px solid powderblue;display: inline-block;background:#73cf10""></div>","<div style= ""height:100px;width:100px;border:00px solid powderblue;display: inline-block;background:#3b3b3b""></div>",25,Male,M
157,ca8vfadd85,,,image-slider-responseMAS-twoColors,19,3036.8,192688,0,NA,-106,,NA,1,1.65E+12,298,14,NA,ca8vfadd85,22222,,"<div style= ""height:100px;width:100px;border:00px solid powderblue;display: inline-block;background:#1c3d61""></div>","<div style= ""height:100px;width:100px;border:00px solid powderblue;display: inline-block;background:#4dc7e8""></div>",25,Male,M
158,ca8vfadd85,,,image-slider-responseMAS-twoColors,20,22155.2,215346,0,NA,98,,NA,0,1.65E+12,299,56,NA,ca8vfadd85,22222,,"<div style= ""height:100px;width:100px;border:00px solid powderblue;display: inline-block;background:#3efe44""></div>","<div style= ""height:100px;width:100px;border:00px solid powderblue;display: inline-block;background:#ac6619""></div>",25,Male,M
159,ca8vfadd85,,,image-slider-responseMAS-twoColors,21,5630.2,221485,0,NA,-84,,NA,1,1.65E+12,300,53,NA,ca8vfadd85,22222,,"<div style= ""height:100px;width:100px;border:00px solid powderblue;display: inline-block;background:#c94e4b""></div>","<div style= ""height:100px;width:100px;border:00px solid powderblue;display: inline-block;background:#8cf47e""></div>",25,Male,M
160,ca8vfadd85,,,image-slider-responseMAS-twoColors,22,3376.6,225364,0,NA,52,,NA,0,1.65E+12,301,39,NA,ca8vfadd85,22222,,"<div style= ""height:100px;width:100px;border:00px solid powderblue;display: inline-block;background:#ffffff""></div>","<div style= ""height:100px;width:100px;border:00px solid powderblue;display: inline-block;background:#a06776""></div>",25,Male,M
161,ca8vfadd85,,,image-slider-responseMAS-twoColors,23,3885,229751,0,NA,200,,NA,0,1.65E+12,302,34,NA,ca8vfadd85,22222,,"<div style= ""height:100px;width:100px;border:00px solid powderblue;display: inline-block;background:#fcdb42""></div>","<div style= ""height:100px;width:100px;border:00px solid powderblue;display: inline-block;background:#000000""></div>",25,Male,M
162,ca8vfadd85,,,image-slider-responseMAS-twoColors,24,8617,238870,0,NA,26,,NA,0,1.65E+12,303,24,NA,ca8vfadd85,22222,,"<div style= ""height:100px;width:100px;border:00px solid powderblue;display: inline-block;background:#39f6e0""></div>","<div style= ""height:100px;width:100px;border:00px solid powderblue;display: inline-block;background:#c94e4b""></div>",25,Male,M
163,ca8vfadd85,,,image-slider-responseMAS-twoColors,25,2621.9,241994,0,NA,160,,NA,0,1.65E+12,304,55,NA,ca8vfadd85,22222,,"<div style= ""height:100px;width:100px;border:00px solid powderblue;display: inline-block;background:#fcdb42""></div>","<div style= ""height:100px;width:100px;border:00px solid powderblue;display: inline-block;background:#897618""></div>",25,Male,M
164,ca8vfadd85,,,image-slider-responseMAS-twoColors,26,3150.9,245648,0,NA,131,,NA,0,1.65E+12,305,29,NA,ca8vfadd85,22222,,"<div style= ""height:100px;width:100px;border:00px solid powderblue;display: inline-block;background:#fcdb42""></div>","<div style= ""height:100px;width:100px;border:00px solid powderblue;display: inline-block;background:#3b8378""></div>",25,Male,M
165,ca8vfadd85,,,image-slider-responseMAS-twoColors,27,3147.5,249300,0,NA,78,,NA,0,1.65E+12,306,15,NA,ca8vfadd85,22222,,"<div style= ""height:100px;width:100px;border:00px solid powderblue;display: inline-block;background:#4dc7e8""></div>","<div style= ""height:100px;width:100px;border:00px solid powderblue;display: inline-block;background:#72005e""></div>",25,Male,M
166,ca8vfadd85,,,image-slider-responseMAS-twoColors,28,7077.5,256879,0,NA,-50,,NA,1,1.65E+12,307,10,NA,ca8vfadd85,22222,,"<div style= ""height:100px;width:100px;border:00px solid powderblue;display: inline-block;background:#746bca""></div>","<div style= ""height:100px;width:100px;border:00px solid powderblue;display: inline-block;background:#fcdb42""></div>",25,Male,M
167,ca8vfadd85,,,image-slider-responseMAS-twoColors,29,4053.8,261436,0,NA,62,,NA,0,1.65E+12,308,18,NA,ca8vfadd85,22222,,"<div style= ""height:100px;width:100px;border:00px solid powderblue;display: inline-block;background:#fcdb42""></div>","<div style= ""height:100px;width:100px;border:00px solid powderblue;display: inline-block;background:#90689f""></div>",25,Male,M
168,ca8vfadd85,,,image-slider-responseMAS-twoColors,30,4203.4,266141,0,NA,32,,NA,0,1.65E+12,309,40,NA,ca8vfadd85,22222,,"<div style= ""height:100px;width:100px;border:00px solid powderblue;display: inline-block;background:#dddddd""></div>","<div style= ""height:100px;width:100px;border:00px solid powderblue;display: inline-block;background:#e31b73""></div>",25,Male,M
169,ca8vfadd85,,,image-slider-responseMAS-twoColors,31,3570.5,270215,0,NA,-98,,NA,1,1.65E+12,310,12,NA,ca8vfadd85,22222,,"<div style= ""height:100px;width:100px;border:00px solid powderblue;display: inline-block;background:#600b84""></div>","<div style= ""height:100px;width:100px;border:00px solid powderblue;display: inline-block;background:#e6a8b7""></div>",25,Male,M
170,ca8vfadd85,,,image-slider-responseMAS-twoColors,32,2922.5,273641,0,NA,143,,NA,0,1.65E+12,311,19,NA,ca8vfadd85,22222,,"<div style= ""height:100px;width:100px;border:00px solid powderblue;display: inline-block;background:#d5a9e4""></div>","<div style= ""height:100px;width:100px;border:00px solid powderblue;display: inline-block;background:#632b14""></div>",25,Male,M
171,ca8vfadd85,,,image-slider-responseMAS-twoColors,33,2808.4,276952,0,NA,-91,,NA,1,1.65E+12,312,54,NA,ca8vfadd85,22222,,"<div style= ""height:100px;width:100px;border:00px solid powderblue;display: inline-block;background:#897618""></div>","<div style= ""height:100px;width:100px;border:00px solid powderblue;display: inline-block;background:#f7db7c""></div>",25,Male,M
172,ca8vfadd85,,,image-slider-responseMAS-twoColors,34,2398.1,279856,0,NA,44,,NA,0,1.65E+12,313,8,NA,ca8vfadd85,22222,,"<div style= ""height:100px;width:100px;border:00px solid powderblue;display: inline-block;background:#fba714""></div>","<div style= ""height:100px;width:100px;border:00px solid powderblue;display: inline-block;background:#2e3086""></div>",25,Male,M
173,ca8vfadd85,,,image-slider-responseMAS-twoColors,35,2977.8,283337,0,NA,24,,NA,0,1.65E+12,314,9,NA,ca8vfadd85,22222,,"<div style= ""height:100px;width:100px;border:00px solid powderblue;display: inline-block;background:#f7db7c""></div>","<div style= ""height:100px;width:100px;border:00px solid powderblue;display: inline-block;background:#746bca""></div>",25,Male,M
174,ca8vfadd85,,,image-slider-responseMAS-twoColors,36,3145,286983,0,NA,158,,NA,0,1.65E+12,315,38,NA,ca8vfadd85,22222,,"<div style= ""height:100px;width:100px;border:00px solid powderblue;display: inline-block;background:#ffffff""></div>","<div style= ""height:100px;width:100px;border:00px solid powderblue;display: inline-block;background:#5e2b3a""></div>",25,Male,M
175,ca8vfadd85,,,image-slider-responseMAS-twoColors,37,8088.1,295573,0,NA,112,,NA,0,1.65E+12,316,20,NA,ca8vfadd85,22222,,"<div style= ""height:100px;width:100px;border:00px solid powderblue;display: inline-block;background:#f7a75a""></div>","<div style= ""height:100px;width:100px;border:00px solid powderblue;display: inline-block;background:#72005e""></div>",25,Male,M
176,ca8vfadd85,,,image-slider-responseMAS-twoColors,38,24264.2,320340,0,NA,10,,NA,0,1.65E+12,317,0,NA,ca8vfadd85,22222,,"<div style= ""height:100px;width:100px;border:00px solid powderblue;display: inline-block;background:#fcdb42""></div>","<div style= ""height:100px;width:100px;border:00px solid powderblue;display: inline-block;background:#2f6ef6""></div>",25,Male,M
177,ca8vfadd85,,,image-slider-responseMAS-twoColors,39,5062.6,325911,0,NA,-11,,NA,1,1.65E+12,318,52,NA,ca8vfadd85,22222,,"<div style= ""height:100px;width:100px;border:00px solid powderblue;display: inline-block;background:#a8664b""></div>","<div style= ""height:100px;width:100px;border:00px solid powderblue;display: inline-block;background:#c8e97d""></div>",25,Male,M
178,ca8vfadd85,,,image-slider-responseMAS-twoColors,40,3196.9,329611,0,NA,58,,NA,0,1.65E+12,319,37,NA,ca8vfadd85,22222,,"<div style= ""height:100px;width:100px;border:00px solid powderblue;display: inline-block;background:#9af443""></div>","<div style= ""height:100px;width:100px;border:00px solid powderblue;display: inline-block;background:#777777""></div>",25,Male,M
179,ca8vfadd85,,,image-slider-responseMAS-twoColors,41,4438,334551,0,NA,-12,,NA,1,1.65E+12,320,13,NA,ca8vfadd85,22222,,"<div style= ""height:100px;width:100px;border:00px solid powderblue;display: inline-block;background:#cd26c7""></div>","<div style= ""height:100px;width:100px;border:00px solid powderblue;display: inline-block;background:#a2eade""></div>",25,Male,M
180,ca8vfadd85,,,image-slider-responseMAS-twoColors,42,3988.1,339042,0,NA,-44,,NA,1,1.65E+12,321,27,NA,ca8vfadd85,22222,,"<div style= ""height:100px;width:100px;border:00px solid powderblue;display: inline-block;background:#3b8378""></div>","<div style= ""height:100px;width:100px;border:00px solid powderblue;display: inline-block;background:#f7db7c""></div>",25,Male,M
181,ca8vfadd85,,,image-slider-responseMAS-twoColors,43,2514.7,342066,0,NA,-32,,NA,1,1.65E+12,322,17,NA,ca8vfadd85,22222,,"<div style= ""height:100px;width:100px;border:00px solid powderblue;display: inline-block;background:#5e78a1""></div>","<div style= ""height:100px;width:100px;border:00px solid powderblue;display: inline-block;background:#3efe44""></div>",25,Male,M
182,ca8vfadd85,,,image-slider-responseMAS-twoColors,44,5278.2,347845,0,NA,17,,NA,0,1.65E+12,323,1,NA,ca8vfadd85,22222,,"<div style= ""height:100px;width:100px;border:00px solid powderblue;display: inline-block;background:#d5a9e4""></div>","<div style= ""height:100px;width:100px;border:00px solid powderblue;display: inline-block;background:#3518ad""></div>",25,Male,M
183,ca8vfadd85,,,image-slider-responseMAS-twoColors,45,17819.6,366166,0,NA,-200,,NA,1,1.65E+12,324,46,NA,ca8vfadd85,22222,,"<div style= ""height:100px;width:100px;border:00px solid powderblue;display: inline-block;background:#184415""></div>","<div style= ""height:100px;width:100px;border:00px solid powderblue;display: inline-block;background:#fcdb42""></div>",25,Male,M
184,ca8vfadd85,,,image-slider-responseMAS-twoColors,46,3866.1,370540,0,NA,200,,NA,0,1.65E+12,325,33,NA,ca8vfadd85,22222,,"<div style= ""height:100px;width:100px;border:00px solid powderblue;display: inline-block;background:#eddcad""></div>","<div style= ""height:100px;width:100px;border:00px solid powderblue;display: inline-block;background:#000000""></div>",25,Male,M
185,ca8vfadd85,,,image-slider-responseMAS-twoColors,47,3432.6,374475,0,NA,62,,NA,0,1.65E+12,326,28,NA,ca8vfadd85,22222,,"<div style= ""height:100px;width:100px;border:00px solid powderblue;display: inline-block;background:#d0e942""></div>","<div style= ""height:100px;width:100px;border:00px solid powderblue;display: inline-block;background:#3b8378""></div>",25,Male,M
186,ca8vfadd85,,,image-slider-responseMAS-twoColors,48,17410.9,392390,0,NA,-133,,NA,1,1.65E+12,327,45,NA,ca8vfadd85,22222,,"<div style= ""height:100px;width:100px;border:00px solid powderblue;display: inline-block;background:#184415""></div>","<div style= ""height:100px;width:100px;border:00px solid powderblue;display: inline-block;background:#d5b811""></div>",25,Male,M
187,ca8vfadd85,,,image-slider-responseMAS-twoColors,49,4224,397118,0,NA,48,,NA,0,1.65E+12,328,6,NA,ca8vfadd85,22222,,"<div style= ""height:100px;width:100px;border:00px solid powderblue;display: inline-block;background:#c7b88b""></div>","<div style= ""height:100px;width:100px;border:00px solid powderblue;display: inline-block;background:#2e3086""></div>",25,Male,M
188,ca8vfadd85,,,image-slider-responseMAS-twoColors,50,50019.8,447639,0,NA,70,,NA,0,1.65E+12,329,21,NA,ca8vfadd85,22222,,"<div style= ""height:100px;width:100px;border:00px solid powderblue;display: inline-block;background:#39f6e0""></div>","<div style= ""height:100px;width:100px;border:00px solid powderblue;display: inline-block;background:#3b8378""></div>",25,Male,M
189,ca8vfadd85,,,image-slider-responseMAS-twoColors,51,11764.9,459907,0,NA,-200,,NA,0,1.65E+12,330,60,NA,ca8vfadd85,22222,,"<div style= ""height:100px;width:100px;border:00px solid powderblue;display: inline-block;background:#000000""></div>","<div style= ""height:100px;width:100px;border:00px solid powderblue;display: inline-block;background:#ffffff""></div>",25,Male,M
190,ca8vfadd85,,,image-slider-responseMAS-twoColors,52,10039,470450,0,NA,109,,NA,0,1.65E+12,331,57,NA,ca8vfadd85,22222,,"<div style= ""height:100px;width:100px;border:00px solid powderblue;display: inline-block;background:#d0e942""></div>","<div style= ""height:100px;width:100px;border:00px solid powderblue;display: inline-block;background:#ac6619""></div>",25,Male,M
191,ca8vfadd85,,,image-slider-responseMAS-twoColors,53,22409.1,493362,0,NA,10,,NA,0,1.65E+12,332,58,NA,ca8vfadd85,22222,,"<div style= ""height:100px;width:100px;border:00px solid powderblue;display: inline-block;background:#a3c55b""></div>","<div style= ""height:100px;width:100px;border:00px solid powderblue;display: inline-block;background:#a3c55b""></div>",25,Male,M
192,ca8vfadd85,,,image-slider-responseMAS-twoColors,54,6192.4,500058,0,NA,-9,,NA,0,1.65E+12,333,59,NA,ca8vfadd85,22222,,"<div style= ""height:100px;width:100px;border:00px solid powderblue;display: inline-block;background:#512d5f""></div>","<div style= ""height:100px;width:100px;border:00px solid powderblue;display: inline-block;background:#512d5f""></div>",25,Male,M
193,ca8vfadd85,,,image-slider-responseMAS-twoColors,55,11388.4,511953,0,NA,39,,NA,0,1.65E+12,334,49,NA,ca8vfadd85,22222,,"<div style= ""height:100px;width:100px;border:00px solid powderblue;display: inline-block;background:#baeaaf""></div>","<div style= ""height:100px;width:100px;border:00px solid powderblue;display: inline-block;background:#ea1d1d""></div>",25,Male,M
194,ca8vfadd85,,,image-slider-responseMAS-twoColors,56,6861.7,519320,0,NA,-106,,NA,1,1.65E+12,335,47,NA,ca8vfadd85,22222,,"<div style= ""height:100px;width:100px;border:00px solid powderblue;display: inline-block;background:#184415""></div>","<div style= ""height:100px;width:100px;border:00px solid powderblue;display: inline-block;background:#fba714""></div>",25,Male,M
195,ca8vfadd85,,,image-slider-responseMAS-twoColors,57,6527.9,526355,0,NA,125,,NA,0,1.65E+12,336,22,NA,ca8vfadd85,22222,,"<div style= ""height:100px;width:100px;border:00px solid powderblue;display: inline-block;background:#39f6e0""></div>","<div style= ""height:100px;width:100px;border:00px solid powderblue;display: inline-block;background:#184415""></div>",25,Male,M
196,ca8vfadd85,,,image-slider-responseMAS-twoColors,58,7149.4,534006,0,NA,-30,,NA,1,1.65E+12,337,5,NA,ca8vfadd85,22222,,"<div style= ""height:100px;width:100px;border:00px solid powderblue;display: inline-block;background:#077acc""></div>","<div style= ""height:100px;width:100px;border:00px solid powderblue;display: inline-block;background:#3efe44""></div>",25,Male,M
197,ca8vfadd85,,,image-slider-responseMAS-twoColors,59,4317.9,538826,0,NA,-144,,NA,1,1.65E+12,338,50,NA,ca8vfadd85,22222,,"<div style= ""height:100px;width:100px;border:00px solid powderblue;display: inline-block;background:#443b14""></div>","<div style= ""height:100px;width:100px;border:00px solid powderblue;display: inline-block;background:#d5b811""></div>",25,Male,M
198,ca8vfadd85,,,image-slider-responseMAS-twoColors,60,3326.7,542655,0,NA,-89,,NA,1,1.65E+12,339,51,NA,ca8vfadd85,22222,,"<div style= ""height:100px;width:100px;border:00px solid powderblue;display: inline-block;background:#632b14""></div>","<div style= ""height:100px;width:100px;border:00px solid powderblue;display: inline-block;background:#d0e942""></div>",25,Male,M
199,ca8vfadd85,,,image-slider-responseMAS-twoColors,61,5309,548467,0,NA,-24,,NA,1,1.65E+12,340,36,NA,ca8vfadd85,22222,,"<div style= ""height:100px;width:100px;border:00px solid powderblue;display: inline-block;background:#777777""></div>","<div style= ""height:100px;width:100px;border:00px solid powderblue;display: inline-block;background:#baeaaf""></div>",25,Male,M
200,ca8vfadd85,,,image-slider-responseMAS-twoColors,62,1927.9,550899,0,NA,122,,NA,0,1.65E+12,341,43,NA,ca8vfadd85,22222,,"<div style= ""height:100px;width:100px;border:00px solid powderblue;display: inline-block;background:#73f5b0""></div>","<div style= ""height:100px;width:100px;border:00px solid powderblue;display: inline-block;background:#632b14""></div>",25,Male,M
201,ca8vfadd85,,,image-slider-responseMAS-twoColors,63,2962.4,554364,0,NA,-100,,NA,1,1.65E+12,342,16,NA,ca8vfadd85,22222,,"<div style= ""height:100px;width:100px;border:00px solid powderblue;display: inline-block;background:#1c3d61""></div>","<div style= ""height:100px;width:100px;border:00px solid powderblue;display: inline-block;background:#67cf5c""></div>",25,Male,M
202,ca8vfadd85,,,image-slider-responseMAS-twoColors,64,2832.3,557699,0,NA,33,,NA,0,1.65E+12,343,42,NA,ca8vfadd85,22222,,"<div style= ""height:100px;width:100px;border:00px solid powderblue;display: inline-block;background:#c8e97d""></div>","<div style= ""height:100px;width:100px;border:00px solid powderblue;display: inline-block;background:#e31b73""></div>",25,Male,M
203,ca8vfadd85,,,image-slider-responseMAS-twoColors,65,3273.1,561480,0,NA,63,,NA,0,1.65E+12,344,30,NA,ca8vfadd85,22222,,"<div style= ""height:100px;width:100px;border:00px solid powderblue;display: inline-block;background:#7ec6ba""></div>","<div style= ""height:100px;width:100px;border:00px solid powderblue;display: inline-block;background:#632b14""></div>",25,Male,M
204,ca8vfadd85,,,image-slider-responseMAS-twoColors,66,2573.5,564556,0,NA,-131,,NA,1,1.65E+12,345,44,NA,ca8vfadd85,22222,,"<div style= ""height:100px;width:100px;border:00px solid powderblue;display: inline-block;background:#184415""></div>","<div style= ""height:100px;width:100px;border:00px solid powderblue;display: inline-block;background:#eddcad""></div>",25,Male,M
205,ca8vfadd85,,,image-slider-responseMAS-twoColors,67,7400.8,572459,0,NA,71,,NA,0,1.65E+12,346,3,NA,ca8vfadd85,22222,,"<div style= ""height:100px;width:100px;border:00px solid powderblue;display: inline-block;background:#fba714""></div>","<div style= ""height:100px;width:100px;border:00px solid powderblue;display: inline-block;background:#3518ad""></div>",25,Male,M
206,ca8vfadd85,,,image-slider-responseMAS-twoColors,68,3181.4,576143,0,NA,-24,,NA,1,1.65E+12,347,41,NA,ca8vfadd85,22222,,"<div style= ""height:100px;width:100px;border:00px solid powderblue;display: inline-block;background:#e81a4b""></div>","<div style= ""height:100px;width:100px;border:00px solid powderblue;display: inline-block;background:#dddddd""></div>",25,Male,M
207,ca8vfadd85,,,html-button-response,69,1529,578173,0,NA,0,,NA,NA,0,348,0,NA,ca8vfadd85,22222,<p>Great Job! You've finished block 1.<br></br> You have 1 block left to go.<br></br></p>,,,25,Male,M
208,ca8vfadd85,,,image-slider-responseMAS-twoColors,70,4129.2,582304,0,NA,-9,,NA,1,1.65E+12,349,58,NA,ca8vfadd85,22222,,"<div style= ""height:100px;width:100px;border:00px solid powderblue;display: inline-block;background:#a3c55b""></div>","<div style= ""height:100px;width:100px;border:00px solid powderblue;display: inline-block;background:#a3c55b""></div>",25,Male,M
209,ca8vfadd85,,,image-slider-responseMAS-twoColors,71,3867.4,586675,0,NA,-16,,NA,0,1.65E+12,350,13,NA,ca8vfadd85,22222,,"<div style= ""height:100px;width:100px;border:00px solid powderblue;display: inline-block;background:#a2eade""></div>","<div style= ""height:100px;width:100px;border:00px solid powderblue;display: inline-block;background:#cd26c7""></div>",25,Male,M
210,ca8vfadd85,,,image-slider-responseMAS-twoColors,72,5708.6,592886,0,NA,-70,,NA,1,1.65E+12,351,56,NA,ca8vfadd85,22222,,"<div style= ""height:100px;width:100px;border:00px solid powderblue;display: inline-block;background:#ac6619""></div>","<div style= ""height:100px;width:100px;border:00px solid powderblue;display: inline-block;background:#3efe44""></div>",25,Male,M
211,ca8vfadd85,,,image-slider-responseMAS-twoColors,73,2719.3,596109,0,NA,-200,,NA,1,1.65E+12,352,34,NA,ca8vfadd85,22222,,"<div style= ""height:100px;width:100px;border:00px solid powderblue;display: inline-block;background:#000000""></div>","<div style= ""height:100px;width:100px;border:00px solid powderblue;display: inline-block;background:#fcdb42""></div>",25,Male,M
212,ca8vfadd85,,,image-slider-responseMAS-twoColors,74,3470.3,600082,0,NA,-128,,NA,1,1.65E+12,353,28,NA,ca8vfadd85,22222,,"<div style= ""height:100px;width:100px;border:00px solid powderblue;display: inline-block;background:#3b8378""></div>","<div style= ""height:100px;width:100px;border:00px solid powderblue;display: inline-block;background:#d0e942""></div>",25,Male,M
213,ca8vfadd85,,,image-slider-responseMAS-twoColors,75,2839.8,603427,0,NA,-191,,NA,1,1.65E+12,354,22,NA,ca8vfadd85,22222,,"<div style= ""height:100px;width:100px;border:00px solid powderblue;display: inline-block;background:#184415""></div>","<div style= ""height:100px;width:100px;border:00px solid powderblue;display: inline-block;background:#39f6e0""></div>",25,Male,M
214,ca8vfadd85,,,image-slider-responseMAS-twoColors,76,3295.9,607225,0,NA,120,,NA,0,1.65E+12,355,47,NA,ca8vfadd85,22222,,"<div style= ""height:100px;width:100px;border:00px solid powderblue;display: inline-block;background:#fba714""></div>","<div style= ""height:100px;width:100px;border:00px solid powderblue;display: inline-block;background:#184415""></div>",25,Male,M
215,ca8vfadd85,,,image-slider-responseMAS-twoColors,77,2138.9,609872,0,NA,-84,,NA,1,1.65E+12,356,6,NA,ca8vfadd85,22222,,"<div style= ""height:100px;width:100px;border:00px solid powderblue;display: inline-block;background:#2e3086""></div>","<div style= ""height:100px;width:100px;border:00px solid powderblue;display: inline-block;background:#c7b88b""></div>",25,Male,M
216,ca8vfadd85,,,image-slider-responseMAS-twoColors,78,3081.2,613457,0,NA,-23,,NA,1,1.65E+12,357,39,NA,ca8vfadd85,22222,,"<div style= ""height:100px;width:100px;border:00px solid powderblue;display: inline-block;background:#a06776""></div>","<div style= ""height:100px;width:100px;border:00px solid powderblue;display: inline-block;background:#ffffff""></div>",25,Male,M
217,ca8vfadd85,,,image-slider-responseMAS-twoColors,79,4326.1,618285,0,NA,-5,,NA,1,1.65E+12,358,49,NA,ca8vfadd85,22222,,"<div style= ""height:100px;width:100px;border:00px solid powderblue;display: inline-block;background:#ea1d1d""></div>","<div style= ""height:100px;width:100px;border:00px solid powderblue;display: inline-block;background:#baeaaf""></div>",25,Male,M
218,ca8vfadd85,,,image-slider-responseMAS-twoColors,80,3157,621945,0,NA,126,,NA,0,1.65E+12,359,46,NA,ca8vfadd85,22222,,"<div style= ""height:100px;width:100px;border:00px solid powderblue;display: inline-block;background:#fcdb42""></div>","<div style= ""height:100px;width:100px;border:00px solid powderblue;display: inline-block;background:#184415""></div>",25,Male,M
219,ca8vfadd85,,,image-slider-responseMAS-twoColors,81,2532.9,624979,0,NA,-110,,NA,1,1.65E+12,360,21,NA,ca8vfadd85,22222,,"<div style= ""height:100px;width:100px;border:00px solid powderblue;display: inline-block;background:#3b8378""></div>","<div style= ""height:100px;width:100px;border:00px solid powderblue;display: inline-block;background:#39f6e0""></div>",25,Male,M
220,ca8vfadd85,,,image-slider-responseMAS-twoColors,82,2617.2,628099,0,NA,83,,NA,0,1.65E+12,361,12,NA,ca8vfadd85,22222,,"<div style= ""height:100px;width:100px;border:00px solid powderblue;display: inline-block;background:#e6a8b7""></div>","<div style= ""height:100px;width:100px;border:00px solid powderblue;display: inline-block;background:#600b84""></div>",25,Male,M
221,ca8vfadd85,,,image-slider-responseMAS-twoColors,83,2040.7,630641,0,NA,-116,,NA,1,1.65E+12,362,23,NA,ca8vfadd85,22222,,"<div style= ""height:100px;width:100px;border:00px solid powderblue;display: inline-block;background:#83764c""></div>","<div style= ""height:100px;width:100px;border:00px solid powderblue;display: inline-block;background:#39f6e0""></div>",25,Male,M
222,ca8vfadd85,,,image-slider-responseMAS-twoColors,84,1910.5,633054,0,NA,118,,NA,0,1.65E+12,363,51,NA,ca8vfadd85,22222,,"<div style= ""height:100px;width:100px;border:00px solid powderblue;display: inline-block;background:#d0e942""></div>","<div style= ""height:100px;width:100px;border:00px solid powderblue;display: inline-block;background:#632b14""></div>",25,Male,M
223,ca8vfadd85,,,image-slider-responseMAS-twoColors,85,2669,636225,0,NA,45,,NA,0,1.65E+12,364,53,NA,ca8vfadd85,22222,,"<div style= ""height:100px;width:100px;border:00px solid powderblue;display: inline-block;background:#8cf47e""></div>","<div style= ""height:100px;width:100px;border:00px solid powderblue;display: inline-block;background:#c94e4b""></div>",25,Male,M
224,ca8vfadd85,,,image-slider-responseMAS-twoColors,86,3670.7,640397,0,NA,48,,NA,0,1.65E+12,365,48,NA,ca8vfadd85,22222,,"<div style= ""height:100px;width:100px;border:00px solid powderblue;display: inline-block;background:#baeaaf""></div>","<div style= ""height:100px;width:100px;border:00px solid powderblue;display: inline-block;background:#cc4f1b""></div>",25,Male,M
225,ca8vfadd85,,,image-slider-responseMAS-twoColors,87,42690.8,683589,0,NA,-113,,NA,1,1.65E+12,366,25,NA,ca8vfadd85,22222,,"<div style= ""height:100px;width:100px;border:00px solid powderblue;display: inline-block;background:#ea1d1d""></div>","<div style= ""height:100px;width:100px;border:00px solid powderblue;display: inline-block;background:#39f6e0""></div>",25,Male,M
226,ca8vfadd85,,,image-slider-responseMAS-twoColors,88,9666.3,693759,0,NA,33,,NA,0,1.65E+12,367,41,NA,ca8vfadd85,22222,,"<div style= ""height:100px;width:100px;border:00px solid powderblue;display: inline-block;background:#dddddd""></div>","<div style= ""height:100px;width:100px;border:00px solid powderblue;display: inline-block;background:#e81a4b""></div>",25,Male,M
227,ca8vfadd85,,,image-slider-responseMAS-twoColors,89,2725.4,696988,0,NA,-200,,NA,1,1.65E+12,368,32,NA,ca8vfadd85,22222,,"<div style= ""height:100px;width:100px;border:00px solid powderblue;display: inline-block;background:#000000""></div>","<div style= ""height:100px;width:100px;border:00px solid powderblue;display: inline-block;background:#c34f74""></div>",25,Male,M
228,ca8vfadd85,,,image-slider-responseMAS-twoColors,90,4680.8,702171,0,NA,-104,,NA,1,1.65E+12,369,20,NA,ca8vfadd85,22222,,"<div style= ""height:100px;width:100px;border:00px solid powderblue;display: inline-block;background:#72005e""></div>","<div style= ""height:100px;width:100px;border:00px solid powderblue;display: inline-block;background:#f7a75a""></div>",25,Male,M
229,ca8vfadd85,,,image-slider-responseMAS-twoColors,91,5133.1,707807,0,NA,-56,,NA,1,1.65E+12,370,9,NA,ca8vfadd85,22222,,"<div style= ""height:100px;width:100px;border:00px solid powderblue;display: inline-block;background:#746bca""></div>","<div style= ""height:100px;width:100px;border:00px solid powderblue;display: inline-block;background:#f7db7c""></div>",25,Male,M
230,ca8vfadd85,,,image-slider-responseMAS-twoColors,92,4314,712623,0,NA,-126,,NA,1,1.65E+12,371,55,NA,ca8vfadd85,22222,,"<div style= ""height:100px;width:100px;border:00px solid powderblue;display: inline-block;background:#897618""></div>","<div style= ""height:100px;width:100px;border:00px solid powderblue;display: inline-block;background:#fcdb42""></div>",25,Male,M
231,ca8vfadd85,,,image-slider-responseMAS-twoColors,93,3795.6,716922,0,NA,-20,,NA,1,1.65E+12,372,18,NA,ca8vfadd85,22222,,"<div style= ""height:100px;width:100px;border:00px solid powderblue;display: inline-block;background:#90689f""></div>","<div style= ""height:100px;width:100px;border:00px solid powderblue;display: inline-block;background:#fcdb42""></div>",25,Male,M
232,ca8vfadd85,,,image-slider-responseMAS-twoColors,94,2890.6,720316,0,NA,84,,NA,0,1.65E+12,373,16,NA,ca8vfadd85,22222,,"<div style= ""height:100px;width:100px;border:00px solid powderblue;display: inline-block;background:#67cf5c""></div>","<div style= ""height:100px;width:100px;border:00px solid powderblue;display: inline-block;background:#1c3d61""></div>",25,Male,M
233,ca8vfadd85,,,image-slider-responseMAS-twoColors,95,3448.1,724266,0,NA,-99,,NA,1,1.65E+12,374,19,NA,ca8vfadd85,22222,,"<div style= ""height:100px;width:100px;border:00px solid powderblue;display: inline-block;background:#632b14""></div>","<div style= ""height:100px;width:100px;border:00px solid powderblue;display: inline-block;background:#d5a9e4""></div>",25,Male,M
234,ca8vfadd85,,,image-slider-responseMAS-twoColors,96,5088.5,729860,0,NA,29,,NA,1,1.65E+12,375,24,NA,ca8vfadd85,22222,,"<div style= ""height:100px;width:100px;border:00px solid powderblue;display: inline-block;background:#c94e4b""></div>","<div style= ""height:100px;width:100px;border:00px solid powderblue;display: inline-block;background:#39f6e0""></div>",25,Male,M
235,ca8vfadd85,,,image-slider-responseMAS-twoColors,97,5260.9,735624,0,NA,81,,NA,0,1.65E+12,376,17,NA,ca8vfadd85,22222,,"<div style= ""height:100px;width:100px;border:00px solid powderblue;display: inline-block;background:#3efe44""></div>","<div style= ""height:100px;width:100px;border:00px solid powderblue;display: inline-block;background:#5e78a1""></div>",25,Male,M
236,ca8vfadd85,,,image-slider-responseMAS-twoColors,98,2421,738547,0,NA,-32,,NA,1,1.65E+12,377,37,NA,ca8vfadd85,22222,,"<div style= ""height:100px;width:100px;border:00px solid powderblue;display: inline-block;background:#777777""></div>","<div style= ""height:100px;width:100px;border:00px solid powderblue;display: inline-block;background:#9af443""></div>",25,Male,M
237,ca8vfadd85,,,image-slider-responseMAS-twoColors,99,2653.7,741703,0,NA,48,,NA,0,1.65E+12,378,52,NA,ca8vfadd85,22222,,"<div style= ""height:100px;width:100px;border:00px solid powderblue;display: inline-block;background:#c8e97d""></div>","<div style= ""height:100px;width:100px;border:00px solid powderblue;display: inline-block;background:#a8664b""></div>",25,Male,M
238,ca8vfadd85,,,image-slider-responseMAS-twoColors,100,2618,744823,0,NA,105,,NA,0,1.65E+12,379,44,NA,ca8vfadd85,22222,,"<div style= ""height:100px;width:100px;border:00px solid powderblue;display: inline-block;background:#eddcad""></div>","<div style= ""height:100px;width:100px;border:00px solid powderblue;display: inline-block;background:#184415""></div>",25,Male,M
239,ca8vfadd85,,,image-slider-responseMAS-twoColors,101,2467.1,747793,0,NA,136,,NA,0,1.65E+12,380,50,NA,ca8vfadd85,22222,,"<div style= ""height:100px;width:100px;border:00px solid powderblue;display: inline-block;background:#d5b811""></div>","<div style= ""height:100px;width:100px;border:00px solid powderblue;display: inline-block;background:#443b14""></div>",25,Male,M
240,ca8vfadd85,,,image-slider-responseMAS-twoColors,102,2486.1,750782,0,NA,-35,,NA,1,1.65E+12,381,1,NA,ca8vfadd85,22222,,"<div style= ""height:100px;width:100px;border:00px solid powderblue;display: inline-block;background:#3518ad""></div>","<div style= ""height:100px;width:100px;border:00px solid powderblue;display: inline-block;background:#d5a9e4""></div>",25,Male,M
241,ca8vfadd85,,,image-slider-responseMAS-twoColors,103,4353.7,755639,0,NA,5,,NA,1,1.65E+12,382,59,NA,ca8vfadd85,22222,,"<div style= ""height:100px;width:100px;border:00px solid powderblue;display: inline-block;background:#512d5f""></div>","<div style= ""height:100px;width:100px;border:00px solid powderblue;display: inline-block;background:#512d5f""></div>",25,Male,M
242,ca8vfadd85,,,image-slider-responseMAS-twoColors,104,4454,760600,0,NA,-150,,NA,1,1.65E+12,383,2,NA,ca8vfadd85,22222,,"<div style= ""height:100px;width:100px;border:00px solid powderblue;display: inline-block;background:#3518ad""></div>","<div style= ""height:100px;width:100px;border:00px solid powderblue;display: inline-block;background:#e6a8b7""></div>",25,Male,M
243,ca8vfadd85,,,image-slider-responseMAS-twoColors,105,3481.3,764585,0,NA,128,,NA,0,1.65E+12,384,7,NA,ca8vfadd85,22222,,"<div style= ""height:100px;width:100px;border:00px solid powderblue;display: inline-block;background:#f1a78a""></div>","<div style= ""height:100px;width:100px;border:00px solid powderblue;display: inline-block;background:#2e3086""></div>",25,Male,M
244,ca8vfadd85,,,image-slider-responseMAS-twoColors,106,4604.9,769692,0,NA,-120,,NA,1,1.65E+12,385,38,NA,ca8vfadd85,22222,,"<div style= ""height:100px;width:100px;border:00px solid powderblue;display: inline-block;background:#5e2b3a""></div>","<div style= ""height:100px;width:100px;border:00px solid powderblue;display: inline-block;background:#ffffff""></div>",25,Male,M
245,ca8vfadd85,,,image-slider-responseMAS-twoColors,107,4906.1,775102,0,NA,-94,,NA,1,1.65E+12,386,29,NA,ca8vfadd85,22222,,"<div style= ""height:100px;width:100px;border:00px solid powderblue;display: inline-block;background:#3b8378""></div>","<div style= ""height:100px;width:100px;border:00px solid powderblue;display: inline-block;background:#fcdb42""></div>",25,Male,M
246,ca8vfadd85,,,image-slider-responseMAS-twoColors,108,3057.7,778663,0,NA,91,,NA,0,1.65E+12,387,36,NA,ca8vfadd85,22222,,"<div style= ""height:100px;width:100px;border:00px solid powderblue;display: inline-block;background:#baeaaf""></div>","<div style= ""height:100px;width:100px;border:00px solid powderblue;display: inline-block;background:#777777""></div>",25,Male,M
247,ca8vfadd85,,,image-slider-responseMAS-twoColors,109,2865.7,782032,0,NA,64,,NA,0,1.65E+12,388,5,NA,ca8vfadd85,22222,,"<div style= ""height:100px;width:100px;border:00px solid powderblue;display: inline-block;background:#3efe44""></div>","<div style= ""height:100px;width:100px;border:00px solid powderblue;display: inline-block;background:#077acc""></div>",25,Male,M
248,ca8vfadd85,,,image-slider-responseMAS-twoColors,110,2695.1,785229,0,NA,-159,,NA,1,1.65E+12,389,43,NA,ca8vfadd85,22222,,"<div style= ""height:100px;width:100px;border:00px solid powderblue;display: inline-block;background:#632b14""></div>","<div style= ""height:100px;width:100px;border:00px solid powderblue;display: inline-block;background:#73f5b0""></div>",25,Male,M
249,ca8vfadd85,,,image-slider-responseMAS-twoColors,111,5269.4,791002,0,NA,-59,,NA,1,1.65E+12,390,8,NA,ca8vfadd85,22222,,"<div style= ""height:100px;width:100px;border:00px solid powderblue;display: inline-block;background:#2e3086""></div>","<div style= ""height:100px;width:100px;border:00px solid powderblue;display: inline-block;background:#fba714""></div>",25,Male,M
250,ca8vfadd85,,,image-slider-responseMAS-twoColors,112,6005.4,797509,0,NA,-82,,NA,1,1.65E+12,391,35,NA,ca8vfadd85,22222,,"<div style= ""height:100px;width:100px;border:00px solid powderblue;display: inline-block;background:#3b3b3b""></div>","<div style= ""height:100px;width:100px;border:00px solid powderblue;display: inline-block;background:#73cf10""></div>",25,Male,M
251,ca8vfadd85,,,image-slider-responseMAS-twoColors,113,6719.2,804731,0,NA,-48,,NA,1,1.65E+12,392,0,NA,ca8vfadd85,22222,,"<div style= ""height:100px;width:100px;border:00px solid powderblue;display: inline-block;background:#2f6ef6""></div>","<div style= ""height:100px;width:100px;border:00px solid powderblue;display: inline-block;background:#fcdb42""></div>",25,Male,M
252,ca8vfadd85,,,image-slider-responseMAS-twoColors,114,2540.1,807775,0,NA,-143,,NA,1,1.65E+12,393,11,NA,ca8vfadd85,22222,,"<div style= ""height:100px;width:100px;border:00px solid powderblue;display: inline-block;background:#600b84""></div>","<div style= ""height:100px;width:100px;border:00px solid powderblue;display: inline-block;background:#a0bae6""></div>",25,Male,M
253,ca8vfadd85,,,image-slider-responseMAS-twoColors,115,2417.5,810694,0,NA,142,,NA,0,1.65E+12,394,45,NA,ca8vfadd85,22222,,"<div style= ""height:100px;width:100px;border:00px solid powderblue;display: inline-block;background:#d5b811""></div>","<div style= ""height:100px;width:100px;border:00px solid powderblue;display: inline-block;background:#184415""></div>",25,Male,M
254,ca8vfadd85,,,image-slider-responseMAS-twoColors,116,2903.9,814101,0,NA,-28,,NA,1,1.65E+12,395,42,NA,ca8vfadd85,22222,,"<div style= ""height:100px;width:100px;border:00px solid powderblue;display: inline-block;background:#e31b73""></div>","<div style= ""height:100px;width:100px;border:00px solid powderblue;display: inline-block;background:#c8e97d""></div>",25,Male,M
255,ca8vfadd85,,,image-slider-responseMAS-twoColors,117,2008.2,816612,0,NA,135,,NA,0,1.65E+12,396,27,NA,ca8vfadd85,22222,,"<div style= ""height:100px;width:100px;border:00px solid powderblue;display: inline-block;background:#f7db7c""></div>","<div style= ""height:100px;width:100px;border:00px solid powderblue;display: inline-block;background:#3b8378""></div>",25,Male,M
256,ca8vfadd85,,,image-slider-responseMAS-twoColors,118,3505.8,820622,0,NA,46,,NA,0,1.65E+12,397,4,NA,ca8vfadd85,22222,,"<div style= ""height:100px;width:100px;border:00px solid powderblue;display: inline-block;background:#a2eade""></div>","<div style= ""height:100px;width:100px;border:00px solid powderblue;display: inline-block;background:#8558f4""></div>",25,Male,M
257,ca8vfadd85,,,image-slider-responseMAS-twoColors,119,2823.1,823950,0,NA,75,,NA,0,1.65E+12,398,10,NA,ca8vfadd85,22222,,"<div style= ""height:100px;width:100px;border:00px solid powderblue;display: inline-block;background:#fcdb42""></div>","<div style= ""height:100px;width:100px;border:00px solid powderblue;display: inline-block;background:#746bca""></div>",25,Male,M
258,ca8vfadd85,,,image-slider-responseMAS-twoColors,120,2428.7,826882,0,NA,-140,,NA,1,1.65E+12,399,3,NA,ca8vfadd85,22222,,"<div style= ""height:100px;width:100px;border:00px solid powderblue;display: inline-block;background:#3518ad""></div>","<div style= ""height:100px;width:100px;border:00px solid powderblue;display: inline-block;background:#fba714""></div>",25,Male,M
259,ca8vfadd85,,,image-slider-responseMAS-twoColors,121,2289,829674,0,NA,-72,,NA,1,1.65E+12,400,40,NA,ca8vfadd85,22222,,"<div style= ""height:100px;width:100px;border:00px solid powderblue;display: inline-block;background:#e31b73""></div>","<div style= ""height:100px;width:100px;border:00px solid powderblue;display: inline-block;background:#dddddd""></div>",25,Male,M
260,ca8vfadd85,,,image-slider-responseMAS-twoColors,122,2460.9,832637,0,NA,-125,,NA,1,1.65E+12,401,57,NA,ca8vfadd85,22222,,"<div style= ""height:100px;width:100px;border:00px solid powderblue;display: inline-block;background:#ac6619""></div>","<div style= ""height:100px;width:100px;border:00px solid powderblue;display: inline-block;background:#d0e942""></div>",25,Male,M
261,ca8vfadd85,,,image-slider-responseMAS-twoColors,123,3558.4,836700,0,NA,130,,NA,0,1.65E+12,402,54,NA,ca8vfadd85,22222,,"<div style= ""height:100px;width:100px;border:00px solid powderblue;display: inline-block;background:#f7db7c""></div>","<div style= ""height:100px;width:100px;border:00px solid powderblue;display: inline-block;background:#897618""></div>",25,Male,M
262,ca8vfadd85,,,image-slider-responseMAS-twoColors,124,3931.9,841135,0,NA,-97,,NA,1,1.65E+12,403,15,NA,ca8vfadd85,22222,,"<div style= ""height:100px;width:100px;border:00px solid powderblue;display: inline-block;background:#72005e""></div>","<div style= ""height:100px;width:100px;border:00px solid powderblue;display: inline-block;background:#4dc7e8""></div>",25,Male,M
263,ca8vfadd85,,,image-slider-responseMAS-twoColors,125,1919.7,843558,0,NA,105,,NA,0,1.65E+12,404,14,NA,ca8vfadd85,22222,,"<div style= ""height:100px;width:100px;border:00px solid powderblue;display: inline-block;background:#4dc7e8""></div>","<div style= ""height:100px;width:100px;border:00px solid powderblue;display: inline-block;background:#1c3d61""></div>",25,Male,M
264,ca8vfadd85,,,image-slider-responseMAS-twoColors,126,3156,847217,0,NA,-85,,NA,1,1.65E+12,405,26,NA,ca8vfadd85,22222,,"<div style= ""height:100px;width:100px;border:00px solid powderblue;display: inline-block;background:#3b8378""></div>","<div style= ""height:100px;width:100px;border:00px solid powderblue;display: inline-block;background:#baeaaf""></div>",25,Male,M
265,ca8vfadd85,,,image-slider-responseMAS-twoColors,127,2094.5,849815,0,NA,121,,NA,0,1.65E+12,406,31,NA,ca8vfadd85,22222,,"<div style= ""height:100px;width:100px;border:00px solid powderblue;display: inline-block;background:#a2eade""></div>","<div style= ""height:100px;width:100px;border:00px solid powderblue;display: inline-block;background:#897618""></div>",25,Male,M
266,ca8vfadd85,,,image-slider-responseMAS-twoColors,128,2886.1,853204,0,NA,-200,,NA,1,1.65E+12,407,33,NA,ca8vfadd85,22222,,"<div style= ""height:100px;width:100px;border:00px solid powderblue;display: inline-block;background:#000000""></div>","<div style= ""height:100px;width:100px;border:00px solid powderblue;display: inline-block;background:#eddcad""></div>",25,Male,M
267,ca8vfadd85,,,image-slider-responseMAS-twoColors,129,4365.6,858071,0,NA,-120,,NA,1,1.65E+12,408,30,NA,ca8vfadd85,22222,,"<div style= ""height:100px;width:100px;border:00px solid powderblue;display: inline-block;background:#632b14""></div>","<div style= ""height:100px;width:100px;border:00px solid powderblue;display: inline-block;background:#7ec6ba""></div>",25,Male,M
268,ca8vfadd85,,,image-slider-responseMAS-twoColors,130,2639,861213,0,NA,200,,NA,1,1.65E+12,409,60,NA,ca8vfadd85,22222,,"<div style= ""height:100px;width:100px;border:00px solid powderblue;display: inline-block;background:#ffffff""></div>","<div style= ""height:100px;width:100px;border:00px solid powderblue;display: inline-block;background:#000000""></div>",25,Male,M
269,ca8vfadd85,,,html-keyboard-response,131,3790.2,865508,0,NA,0,,NA,NA,0,410,0,NA,ca8vfadd85,22222,"<p>Next, you will see an image on the screen.<br>If you see a number in the image, please type that number in the box.</p><p>If you do not see a number in the image, please type 'None' in the box.<br>This part of the experiment will take about 1 minute.</p><p>Please press the spacebar to begin.</p>",,,25,Male,M
270,ca8vfadd85,"{""ishihara"":""12""}",,image-text-responseMAS,132,4882.9,870903,0,1,0,"{""ishihara"":""12""}",NA,NA,0,411,0,NA,ca8vfadd85,22222,ishiharaPlateImg/IshiharaPlates-0-0.png,,,25,Male,M
271,ca8vfadd85,"{""ishihara"":""45""}",,image-text-responseMAS,133,4789.1,875696,0,1,0,"{""ishihara"":""45""}",NA,NA,0,412,0,NA,ca8vfadd85,22222,ishiharaPlateImg/IshiharaPlates-3-1.png,,,25,Male,M
272,ca8vfadd85,"{""ishihara"":""74""}",,image-text-responseMAS,134,4002.2,879702,0,1,0,"{""ishihara"":""74""}",NA,NA,0,413,0,NA,ca8vfadd85,22222,ishiharaPlateImg/IshiharaPlates-2-3.png,,,25,Male,M
273,ca8vfadd85,"{""ishihara"":""29""}",,image-text-responseMAS,135,3922.3,883629,0,1,0,"{""ishihara"":""29""}",NA,NA,0,414,0,NA,ca8vfadd85,22222,ishiharaPlateImg/IshiharaPlates-1-1.png,,,25,Male,M
274,ca8vfadd85,"{""ishihara"":""42""}",,image-text-responseMAS,136,3080.3,886712,0,1,0,"{""ishihara"":""42""}",NA,NA,0,415,0,NA,ca8vfadd85,22222,ishiharaPlateImg/IshiharaPlates-5-1.png,,,25,Male,M
275,ca8vfadd85,"{""ishihara"":""73""}",,image-text-responseMAS,137,14941.5,901657,0,1,0,"{""ishihara"":""73""}",NA,NA,0,416,0,NA,ca8vfadd85,22222,ishiharaPlateImg/IshiharaPlates-4-3.png,,,25,Male,M
276,ca8vfadd85,"{""colorDifficulty"":""No"",""colorBlind"":""No"",""device"":""Computer""}","[0,1,2]",survey-multi-choice,138,8657.5,910318,0,NA,0,,NA,NA,0,417,0,NA,ca8vfadd85,22222,,,,25,Male,M
277,dy65vq2r54,,,call-function,1,0,13,0,NA,0,,NA,NA,0,558,0,NA,dy65vq2r54,66666,,,,28,Male,M
278,dy65vq2r54,"{""Consent"":[""<strong>I consent</strong>""]}",[0],survey-multi-selectMAS,2,12201,12218,0,NA,0,,NA,NA,0,559,0,NA,dy65vq2r54,66666,,,,28,Male,M
